id,trial,session,stim_type,factual_truth,resp,rt,correct,condition
1,1,2,0,1,0,5.9,0,1
1,2,2,1,0,1,3.1,0,4
1,4,2,0,1,1,3.51,1,1
1,5,2,1,0,1,2.73,0,4
1,6,2,1,1,1,3.41,1,2
1,7,2,1,0,0,6.25,1,4
1,8,2,0,1,1,2.79,1,1
1,9,2,0,0,1,5.4,0,3
1,11,2,1,0,0,4.55,1,4
1,12,2,0,1,0,4.73,0,1
1,13,2,0,0,1,4.82,0,3
1,15,2,0,0,1,7,0,3
1,16,2,0,1,1,5.46,1,1
1,17,2,1,0,1,2.98,0,4
1,18,2,0,1,1,6.97,1,1
1,19,2,1,1,1,3.05,1,2
1,20,2,0,1,0,3.88,0,1
1,21,2,1,1,0,3.87,0,2
1,22,2,0,0,0,8.25,1,3
1,23,2,0,1,1,6.38,1,1
1,24,2,1,0,1,2.83,0,4
1,25,2,1,1,0,5.44,0,2
1,26,2,0,0,1,6.64,0,3
1,27,2,1,0,1,2.73,0,4
1,28,2,0,0,0,3.33,1,3
1,29,2,0,1,1,4.73,1,1
1,30,2,1,1,1,4.72,1,2
1,31,2,1,1,0,6.15,0,2
1,32,2,1,0,0,5.6,1,4
1,34,2,0,0,1,4.29,0,3
1,35,2,0,0,0,5.72,1,3
1,36,2,1,0,1,4.64,0,4
1,37,2,1,0,0,4.75,1,4
1,38,2,1,0,1,6.36,0,4
1,40,2,1,1,1,4.4,1,2
1,41,2,0,1,1,3.09,1,1
1,42,2,1,1,1,4.65,1,2
1,43,2,1,1,1,3.37,1,2
1,44,2,1,0,0,4.37,1,4
1,45,2,0,0,0,8.12,1,3
1,46,2,1,0,1,2.86,0,4
1,47,2,0,0,1,7.27,0,3
1,48,2,0,1,1,5.54,1,1
1,49,2,0,0,1,5.99,0,3
1,50,2,0,1,0,3.87,0,1
1,51,2,1,1,0,3.12,0,2
1,52,2,1,1,0,3.08,0,2
1,53,2,0,1,0,5.24,0,1
1,54,2,0,0,1,3.67,0,3
1,55,2,1,0,0,2.65,1,4
1,56,2,0,0,0,4.44,1,3
1,57,2,0,0,1,4.54,0,3
1,58,2,0,1,1,6.03,1,1
1,59,2,0,1,1,4.27,1,1
1,60,2,1,1,1,7.19,1,2
2,1,2,0,1,1,2.62,1,1
2,2,2,0,1,1,3.24,1,1
2,3,2,1,1,0,2.45,0,2
2,4,2,0,1,0,3.18,0,1
2,5,2,1,1,1,1.85,1,2
2,6,2,1,0,1,2.08,0,4
2,7,2,1,1,1,4.55,1,2
2,8,2,0,1,1,2.15,1,1
2,9,2,0,1,0,5.73,0,1
2,10,2,1,1,1,2.24,1,2
2,11,2,1,0,0,3.45,1,4
2,12,2,0,0,1,2.38,0,3
2,13,2,1,0,0,4.5,1,4
2,14,2,0,1,0,2.45,0,1
2,15,2,1,0,1,2.3,0,4
2,16,2,0,0,1,2.86,0,3
2,17,2,1,1,1,1.79,1,2
2,18,2,1,1,1,3.56,1,2
2,19,2,1,1,1,2.45,1,2
2,20,2,1,0,1,2.03,0,4
2,21,2,1,0,1,2.63,0,4
2,22,2,0,0,1,2.59,0,3
2,23,2,1,1,0,3.7,0,2
2,24,2,1,0,1,4.02,0,4
2,25,2,0,0,0,2.44,1,3
2,26,2,1,1,1,2.53,1,2
2,27,2,1,1,1,2.94,1,2
2,28,2,0,1,1,2.43,1,1
2,29,2,0,1,0,3.71,0,1
2,30,2,0,1,1,3.51,1,1
2,31,2,1,1,1,1.64,1,2
2,32,2,1,0,1,2.62,0,4
2,33,2,0,0,0,2.6,1,3
2,34,2,0,1,0,3.42,0,1
2,35,2,0,1,0,2.45,0,1
2,36,2,1,0,1,1.44,0,4
2,37,2,1,0,1,1.8,0,4
2,38,2,0,0,0,2.73,1,3
2,39,2,0,0,1,2.84,0,3
2,40,2,1,1,0,2.12,0,2
2,41,2,0,0,1,2.48,0,3
2,42,2,0,1,1,3.02,1,1
2,43,2,0,0,0,2.27,1,3
2,44,2,1,0,1,1.41,0,4
2,45,2,1,0,1,2.57,0,4
2,46,2,1,1,1,1.98,1,2
2,47,2,0,0,1,1.64,0,3
2,48,2,0,1,0,4.29,0,1
2,49,2,0,0,0,3.08,1,3
2,50,2,0,0,1,2.5,0,3
2,51,2,1,0,1,1.87,0,4
2,52,2,1,1,1,2.07,1,2
2,53,2,0,0,0,3.38,1,3
2,54,2,1,0,1,1.95,0,4
2,55,2,1,0,0,2.3,1,4
2,57,2,1,1,1,2.64,1,2
2,58,2,0,1,0,3.2,0,1
2,59,2,0,0,1,2.87,0,3
2,60,2,0,1,0,4.42,0,1
3,1,2,0,0,0,3.2,1,3
3,2,2,1,1,0,2.66,0,2
3,3,2,1,0,0,3.51,1,4
3,4,2,0,1,1,4.85,1,1
3,5,2,0,0,1,3.65,0,3
3,6,2,1,1,0,3.33,0,2
3,7,2,0,1,0,6.92,0,1
3,8,2,0,1,0,3.5,0,1
3,9,2,0,1,1,2.36,1,1
3,10,2,0,0,0,2.94,1,3
3,11,2,0,1,1,2.36,1,1
3,12,2,1,1,1,3.31,1,2
3,13,2,1,0,1,1.99,0,4
3,14,2,1,1,0,3.22,0,2
3,15,2,1,1,1,5.6,1,2
3,16,2,1,0,1,3.59,0,4
3,17,2,0,1,0,3.7,0,1
3,18,2,1,1,1,2.08,1,2
3,19,2,1,1,0,5.35,0,2
3,20,2,1,0,1,2.64,0,4
3,21,2,0,0,1,3.63,0,3
3,22,2,0,1,0,4.27,0,1
3,23,2,1,1,1,2.78,1,2
3,24,2,1,1,0,4.13,0,2
3,25,2,1,1,1,6.8,1,2
3,26,2,1,1,1,2.43,1,2
3,27,2,0,1,0,3.62,0,1
3,28,2,1,1,1,3.02,1,2
3,29,2,0,0,1,2.82,0,3
3,31,2,0,0,1,4.4,0,3
3,32,2,1,0,1,1.98,0,4
3,33,2,1,0,0,2.98,1,4
3,34,2,1,0,1,4.38,0,4
3,35,2,1,0,1,3.5,0,4
3,36,2,0,1,1,3.57,1,1
3,37,2,1,0,0,2.29,1,4
3,38,2,1,0,1,2.97,0,4
3,39,2,1,0,0,4.38,1,4
3,40,2,1,0,1,2.22,0,4
3,41,2,0,0,0,6.1,1,3
3,42,2,0,0,1,2.5,0,3
3,43,2,1,1,1,2.48,1,2
3,44,2,1,0,0,2.37,1,4
3,45,2,0,0,1,4.17,0,3
3,46,2,1,1,1,2.52,1,2
3,47,2,0,1,1,3.44,1,1
3,48,2,0,0,1,2.65,0,3
3,49,2,1,0,1,1.88,0,4
3,50,2,0,0,0,6.2,1,3
3,51,2,0,1,1,4.47,1,1
3,52,2,0,0,1,2.26,0,3
3,53,2,0,1,1,2.53,1,1
3,54,2,0,1,0,4.06,0,1
3,55,2,1,1,1,5.77,1,2
3,56,2,0,0,0,2.79,1,3
3,57,2,0,0,1,7.48,0,3
3,58,2,1,0,1,2.33,0,4
3,59,2,0,1,1,2.2,1,1
3,60,2,0,1,1,3.19,1,1
4,1,2,1,0,0,5.91,1,4
4,2,2,1,0,1,4.85,0,4
4,3,2,0,1,0,4.07,0,1
4,5,2,1,1,1,3.1,1,2
4,6,2,1,1,1,3.75,1,2
4,7,2,1,0,1,2.75,0,4
4,8,2,0,1,1,3.9,1,1
4,9,2,1,1,1,2.89,1,2
4,10,2,1,0,1,4.55,0,4
4,11,2,1,1,1,5.35,1,2
4,12,2,1,0,1,4,0,4
4,13,2,1,1,1,2.6,1,2
4,14,2,1,0,1,2.4,0,4
4,15,2,0,0,1,3.69,0,3
4,16,2,0,0,1,2.51,0,3
4,17,2,1,0,1,2.71,0,4
4,18,2,1,0,1,2.38,0,4
4,19,2,0,0,1,4.4,0,3
4,20,2,1,0,0,5.25,1,4
4,21,2,0,0,1,3.46,0,3
4,22,2,0,0,1,2.83,0,3
4,23,2,1,0,1,3.65,0,4
4,24,2,0,1,0,4.1,0,1
4,25,2,0,0,1,2.96,0,3
4,26,2,0,1,1,3.68,1,1
4,27,2,1,1,0,4.2,0,2
4,28,2,1,1,1,2.48,1,2
4,29,2,0,0,1,6.63,0,3
4,30,2,0,0,0,6.09,1,3
4,31,2,0,1,1,4.6,1,1
4,32,2,0,1,1,3.18,1,1
4,33,2,1,1,1,2.44,1,2
4,34,2,0,0,0,4.07,1,3
4,35,2,1,1,1,3.77,1,2
4,36,2,0,0,0,2.48,1,3
4,37,2,1,0,1,2.63,0,4
4,38,2,0,1,0,3.59,0,1
4,39,2,0,0,1,3.42,0,3
4,40,2,0,0,0,3.13,1,3
4,41,2,1,0,0,2.27,1,4
4,42,2,0,1,0,3.99,0,1
4,43,2,0,1,0,3.9,0,1
4,44,2,0,1,1,3.2,1,1
4,45,2,0,1,1,2.47,1,1
4,46,2,1,1,1,2.79,1,2
4,47,2,0,0,1,4.9,0,3
4,48,2,0,1,1,5.34,1,1
4,49,2,1,1,1,2.23,1,2
4,50,2,1,1,1,3.14,1,2
4,51,2,0,0,0,3.2,1,3
4,52,2,1,0,0,4.85,1,4
4,53,2,1,0,1,3.15,0,4
4,54,2,1,0,1,3.28,0,4
4,55,2,1,1,1,2.91,1,2
4,56,2,0,1,1,2.43,1,1
4,57,2,0,1,1,4.02,1,1
4,58,2,1,1,1,3.2,1,2
4,59,2,1,1,0,4.16,0,2
4,60,2,0,0,0,4.77,1,3
5,1,2,1,1,1,4.33,1,2
5,2,2,1,0,0,3.02,1,4
5,3,2,1,1,1,3.47,1,2
5,4,2,1,0,0,3.55,1,4
5,5,2,1,0,0,3.97,1,4
5,6,2,1,1,1,3.42,1,2
5,7,2,1,0,0,3.33,1,4
5,8,2,0,0,1,5.78,0,3
5,9,2,1,1,1,3.11,1,2
5,10,2,1,0,0,7.15,1,4
5,11,2,0,1,1,4.87,1,1
5,12,2,1,1,0,6.15,0,2
5,13,2,0,1,0,7.02,0,1
5,14,2,1,0,0,3.67,1,4
5,15,2,0,0,0,9.25,1,3
5,16,2,0,1,1,7.23,1,1
5,17,2,1,1,0,4.73,0,2
5,19,2,0,0,1,6.12,0,3
5,20,2,0,1,0,3.88,0,1
5,21,2,0,1,0,3.45,0,1
5,22,2,1,1,1,4.46,1,2
5,23,2,1,1,1,4.12,1,2
5,24,2,0,0,0,6.66,1,3
5,25,2,0,1,0,6.22,0,1
5,26,2,0,0,0,6.23,1,3
5,29,2,1,1,1,3.58,1,2
5,30,2,0,1,1,7.26,1,1
5,31,2,0,0,1,4.76,0,3
5,32,2,1,0,0,3.45,1,4
5,33,2,0,1,0,6.68,0,1
5,34,2,0,1,1,5.23,1,1
5,35,2,1,0,1,4.29,0,4
5,36,2,0,1,0,4.91,0,1
5,37,2,0,0,1,4.99,0,3
5,38,2,0,1,1,9.26,1,1
5,39,2,1,0,0,3,1,4
5,40,2,0,0,0,4.32,1,3
5,42,2,1,0,0,3.36,1,4
5,43,2,1,0,0,4.83,1,4
5,44,2,0,1,0,3.93,0,1
5,45,2,0,0,0,6.46,1,3
5,46,2,1,1,1,3.14,1,2
5,47,2,0,1,0,6.02,0,1
5,48,2,0,0,1,5.13,0,3
5,49,2,1,1,1,4.15,1,2
5,50,2,0,0,1,5.42,0,3
5,51,2,0,0,0,4.45,1,3
5,52,2,0,0,1,3.6,0,3
5,53,2,1,0,0,3.69,1,4
5,54,2,1,1,0,3.98,0,2
5,55,2,1,1,0,5.58,0,2
5,56,2,0,0,0,7.35,1,3
5,57,2,1,0,1,3.8,0,4
5,58,2,1,1,0,4.07,0,2
5,59,2,0,0,1,7.08,0,3
5,60,2,1,1,1,5.8,1,2
6,1,2,1,0,1,4.9,0,4
6,2,2,0,1,0,6.68,0,1
6,3,2,1,1,0,3.29,0,2
6,4,2,0,1,0,4.59,0,1
6,5,2,0,0,1,3.26,0,3
6,6,2,1,0,0,3.19,1,4
6,7,2,0,1,1,6.34,1,1
6,8,2,0,1,0,2.78,0,1
6,9,2,1,1,0,8.57,0,2
6,10,2,0,1,1,4.74,1,1
6,11,2,1,1,0,8.51,0,2
6,12,2,1,0,0,3.28,1,4
6,13,2,1,0,0,5.75,1,4
6,14,2,0,0,1,2.62,0,3
6,15,2,0,0,1,6.06,0,3
6,16,2,1,1,0,4.92,0,2
6,17,2,1,0,0,8.13,1,4
6,18,2,1,0,0,3.75,1,4
6,19,2,1,1,1,2.67,1,2
6,20,2,0,0,0,7.56,1,3
6,21,2,0,0,1,7.32,0,3
6,22,2,0,1,1,5.43,1,1
6,23,2,0,0,1,4.91,0,3
6,24,2,0,1,0,4.72,0,1
6,25,2,1,0,1,5.95,0,4
6,26,2,0,1,0,7.71,0,1
6,27,2,0,1,1,3.98,1,1
6,28,2,1,1,0,3.56,0,2
6,29,2,1,1,0,4.43,0,2
6,30,2,1,0,1,3.95,0,4
6,31,2,1,1,1,3.42,1,2
6,32,2,1,0,1,2.51,0,4
6,33,2,1,0,1,2.34,0,4
6,34,2,0,1,0,5.32,0,1
6,35,2,1,0,1,5.4,0,4
6,36,2,1,1,1,3.29,1,2
6,37,2,0,1,1,9.28,1,1
6,38,2,1,0,0,2.99,1,4
6,39,2,0,1,1,4.8,1,1
6,40,2,0,0,0,7.23,1,3
6,41,2,1,1,1,3.89,1,2
6,42,2,0,0,1,6.34,0,3
6,43,2,1,1,0,8.27,0,2
6,44,2,1,1,1,5.43,1,2
6,45,2,0,0,0,5.69,1,3
6,46,2,0,0,1,4.69,0,3
6,47,2,0,1,1,2.98,1,1
6,48,2,1,0,1,3.29,0,4
6,50,2,0,0,1,4.33,0,3
6,51,2,0,1,0,4.76,0,1
6,52,2,1,0,1,3.28,0,4
6,53,2,0,0,0,6.77,1,3
6,54,2,1,1,0,5.54,0,2
6,55,2,0,1,1,3.75,1,1
6,56,2,1,1,1,3.72,1,2
6,57,2,0,0,1,3.46,0,3
6,58,2,0,0,0,8.8,1,3
6,59,2,1,1,1,2.77,1,2
6,60,2,1,0,0,5.12,1,4
7,1,2,0,0,1,3.66,0,3
7,2,2,0,1,0,2.29,0,1
7,3,2,1,0,1,2.8,0,4
7,4,2,1,0,0,4.91,1,4
7,5,2,1,1,0,5.38,0,2
7,6,2,1,0,1,2.95,0,4
7,7,2,0,1,1,3.41,1,1
7,8,2,0,1,1,4.2,1,1
7,9,2,1,1,0,3.02,0,2
7,10,2,0,1,1,2.75,1,1
7,11,2,1,0,0,3.91,1,4
7,12,2,1,0,0,2.83,1,4
7,13,2,0,1,0,2.74,0,1
7,14,2,0,0,1,3.2,0,3
7,15,2,0,0,1,2.97,0,3
7,16,2,0,1,1,3.99,1,1
7,17,2,0,0,0,2.65,1,3
7,18,2,1,0,1,2.5,0,4
7,19,2,0,1,1,3.26,1,1
7,20,2,1,1,0,2.83,0,2
7,21,2,1,0,1,2.44,0,4
7,22,2,1,1,0,3.96,0,2
7,23,2,0,1,1,6.13,1,1
7,25,2,1,0,1,2.73,0,4
7,26,2,0,0,1,3.63,0,3
7,27,2,0,1,1,2.83,1,1
7,28,2,1,0,1,4.46,0,4
7,29,2,1,0,1,2.55,0,4
7,30,2,1,1,1,4.75,1,2
7,31,2,1,0,0,3.58,1,4
7,32,2,1,1,1,2.67,1,2
7,33,2,0,0,0,3.55,1,3
7,34,2,0,1,0,3.04,0,1
7,35,2,0,0,0,4.05,1,3
7,36,2,1,1,0,3.13,0,2
7,37,2,0,0,0,2.85,1,3
7,38,2,1,0,1,3.4,0,4
7,39,2,1,1,1,3.35,1,2
7,40,2,1,1,1,5.29,1,2
7,41,2,0,0,0,3.17,1,3
7,42,2,1,1,0,2.98,0,2
7,43,2,0,1,1,3.83,1,1
7,44,2,0,1,1,2.66,1,1
7,45,2,1,1,0,3.34,0,2
7,46,2,0,1,0,3.94,0,1
7,47,2,1,1,1,3.37,1,2
7,48,2,0,0,1,2.45,0,3
7,49,2,0,0,0,3.86,1,3
7,50,2,0,1,0,3,0,1
7,51,2,0,1,1,3.62,1,1
7,52,2,0,0,1,3.92,0,3
7,53,2,0,0,1,3.87,0,3
7,54,2,1,1,1,2.34,1,2
7,55,2,1,1,1,3.03,1,2
7,56,2,1,1,1,2.11,1,2
7,57,2,1,0,1,3.93,0,4
7,58,2,1,0,1,1.92,0,4
7,59,2,0,0,0,3.65,1,3
7,60,2,1,0,1,3,0,4
8,1,2,0,1,1,1.77,1,1
8,2,2,1,0,1,3.03,0,4
8,3,2,0,1,1,3.4,1,1
8,4,2,1,0,1,2.47,0,4
8,5,2,0,0,0,3.7,1,3
8,6,2,1,0,1,2.13,0,4
8,7,2,0,1,0,4.31,0,1
8,8,2,1,1,0,4,0,2
8,9,2,1,0,0,3.12,1,4
8,10,2,0,1,0,3.89,0,1
8,11,2,0,0,1,2.29,0,3
8,12,2,1,1,1,2.44,1,2
8,13,2,0,1,1,3.37,1,1
8,14,2,1,0,0,1.96,1,4
8,15,2,0,0,1,4.04,0,3
8,16,2,1,1,1,3.61,1,2
8,17,2,0,1,1,3.9,1,1
8,18,2,1,0,1,4.38,0,4
8,19,2,1,1,1,4.46,1,2
8,20,2,0,0,1,5.09,0,3
8,21,2,0,0,0,3.43,1,3
8,22,2,1,0,0,3.03,1,4
8,23,2,1,0,1,4.69,0,4
8,24,2,1,0,1,3.32,0,4
8,25,2,0,1,0,2.62,0,1
8,26,2,1,1,1,3.95,1,2
8,27,2,1,1,1,5.57,1,2
8,28,2,1,1,0,3.78,0,2
8,29,2,1,1,1,4.13,1,2
8,31,2,0,1,0,4.64,0,1
8,32,2,0,0,1,5.22,0,3
8,33,2,0,0,0,2.75,1,3
8,34,2,0,1,0,5.5,0,1
8,35,2,1,0,1,2.55,0,4
8,36,2,0,0,1,3.92,0,3
8,37,2,0,0,0,3.55,1,3
8,38,2,1,1,0,4.58,0,2
8,39,2,0,1,1,3.54,1,1
8,40,2,0,0,0,4.3,1,3
8,41,2,0,0,1,3.13,0,3
8,42,2,0,1,1,2.86,1,1
8,43,2,1,1,1,5.38,1,2
8,44,2,0,1,1,4.59,1,1
8,45,2,1,1,1,2.74,1,2
8,46,2,1,0,0,4.07,1,4
8,47,2,1,0,1,3.7,0,4
8,48,2,1,1,1,2.93,1,2
8,49,2,1,1,0,2,0,2
8,50,2,0,1,1,3.38,1,1
8,51,2,0,1,1,3.3,1,1
8,52,2,1,1,1,3.2,1,2
8,53,2,1,0,1,2.33,0,4
8,54,2,1,0,0,5.49,1,4
8,55,2,1,0,1,3.04,0,4
8,56,2,0,0,1,2.5,0,3
8,57,2,0,0,1,3.77,0,3
8,58,2,0,0,0,2.57,1,3
8,59,2,0,0,0,2.51,1,3
8,60,2,1,1,1,4.41,1,2
9,1,2,1,1,1,3.42,1,2
9,2,2,1,1,0,3.95,0,2
9,3,2,1,1,0,4.68,0,2
9,4,2,1,0,1,2.69,0,4
9,5,2,0,0,1,4.3,0,3
9,6,2,0,1,1,4.83,1,1
9,7,2,1,1,0,3.71,0,2
9,8,2,1,0,1,3.5,0,4
9,9,2,1,1,1,4.31,1,2
9,10,2,0,1,1,3.85,1,1
9,11,2,1,0,0,3.57,1,4
9,12,2,0,1,1,2.45,1,1
9,13,2,0,0,1,2.79,0,3
9,14,2,1,1,1,1.97,1,2
9,15,2,1,0,1,3.77,0,4
9,16,2,1,0,1,6.37,0,4
9,17,2,0,1,1,4.01,1,1
9,18,2,1,1,1,2.4,1,2
9,19,2,1,1,1,2.33,1,2
9,20,2,1,1,1,4.37,1,2
9,21,2,1,0,1,2.76,0,4
9,22,2,0,0,0,2.9,1,3
9,23,2,0,1,0,4.4,0,1
9,24,2,0,1,0,3.94,0,1
9,25,2,0,0,1,4.72,0,3
9,26,2,1,1,1,2.73,1,2
9,27,2,1,0,1,3.5,0,4
9,28,2,0,0,1,3.89,0,3
9,29,2,0,0,1,4.57,0,3
9,30,2,1,1,1,3.92,1,2
9,31,2,1,1,1,4.77,1,2
9,32,2,1,0,0,3.72,1,4
9,33,2,0,0,1,2.76,0,3
9,34,2,1,1,1,2.45,1,2
9,35,2,0,0,0,3.03,1,3
9,36,2,1,0,1,2.16,0,4
9,37,2,0,0,1,3.21,0,3
9,38,2,0,0,0,4.81,1,3
9,39,2,1,0,1,2.23,0,4
9,40,2,1,0,1,3.13,0,4
9,41,2,1,0,1,3.4,0,4
9,42,2,0,1,1,3.44,1,1
9,43,2,1,0,1,2.97,0,4
9,44,2,0,1,1,3.8,1,1
9,45,2,1,1,1,5.51,1,2
9,46,2,0,1,1,2.97,1,1
9,47,2,0,1,1,5.41,1,1
9,48,2,0,1,1,2.97,1,1
9,49,2,0,0,1,2.44,0,3
9,50,2,0,1,1,2.43,1,1
9,51,2,1,0,0,3.1,1,4
9,52,2,1,0,0,2.71,1,4
9,53,2,0,0,1,3.71,0,3
9,54,2,0,1,1,2.97,1,1
9,55,2,0,0,1,2.33,0,3
9,56,2,0,0,0,3.3,1,3
9,57,2,0,1,1,2.42,1,1
9,58,2,0,0,1,4.37,0,3
9,59,2,0,1,1,2.33,1,1
9,60,2,1,1,1,4.41,1,2
10,1,2,1,0,0,4.19,1,4
10,2,2,1,1,0,3.94,0,2
10,3,2,0,0,1,3.47,0,3
10,4,2,0,1,1,3.24,1,1
10,5,2,1,1,0,3.55,0,2
10,6,2,0,1,0,4.44,0,1
10,7,2,1,1,0,4.45,0,2
10,8,2,1,1,1,4.83,1,2
10,9,2,1,0,1,3.94,0,4
10,10,2,0,0,1,4,0,3
10,11,2,0,0,1,5.69,0,3
10,12,2,0,1,1,4.38,1,1
10,13,2,0,0,1,4.3,0,3
10,14,2,1,0,0,4.79,1,4
10,15,2,1,1,1,2.8,1,2
10,16,2,0,0,1,3.58,0,3
10,17,2,1,1,1,2.89,1,2
10,18,2,0,1,1,3.96,1,1
10,19,2,1,0,0,3.22,1,4
10,20,2,1,0,1,3.34,0,4
10,21,2,0,0,0,2.45,1,3
10,22,2,1,0,1,3.4,0,4
10,23,2,1,1,1,3.64,1,2
10,24,2,0,1,1,3.63,1,1
10,25,2,0,1,0,4.8,0,1
10,26,2,1,1,1,2.86,1,2
10,28,2,0,0,1,4.32,0,3
10,29,2,0,1,1,3.78,1,1
10,30,2,1,1,1,3.58,1,2
10,31,2,1,1,0,2.83,0,2
10,32,2,0,0,1,3,0,3
10,33,2,1,1,0,2.97,0,2
10,34,2,1,0,0,3.93,1,4
10,35,2,0,0,1,2.84,0,3
10,36,2,1,0,1,4.17,0,4
10,37,2,0,1,1,3.69,1,1
10,38,2,0,1,1,2.98,1,1
10,39,2,0,0,1,3.23,0,3
10,40,2,1,1,0,3.6,0,2
10,41,2,0,0,1,4.51,0,3
10,42,2,1,0,1,3.03,0,4
10,43,2,0,0,1,3.57,0,3
10,44,2,1,0,1,4.79,0,4
10,45,2,0,0,1,2.67,0,3
10,46,2,1,0,0,3.36,1,4
10,47,2,0,1,1,3.13,1,1
10,48,2,0,0,0,4.89,1,3
10,49,2,0,1,1,3.17,1,1
10,50,2,1,0,0,4.04,1,4
10,51,2,0,1,1,2.77,1,1
10,52,2,1,1,0,4.43,0,2
10,53,2,1,1,1,4.11,1,2
10,54,2,1,0,1,2.76,0,4
10,55,2,1,0,0,5.3,1,4
10,57,2,0,1,1,3.4,1,1
10,58,2,0,0,0,2.63,1,3
10,60,2,1,0,1,2.6,0,4
11,1,2,1,1,1,2.71,1,2
11,2,2,0,0,1,3.34,0,3
11,3,2,1,1,1,9.01,1,2
11,4,2,1,0,1,4.72,0,4
11,5,2,1,1,1,2.23,1,2
11,6,2,0,0,0,7.87,1,3
11,7,2,1,0,1,6.78,0,4
11,8,2,0,1,1,4.95,1,1
11,9,2,1,1,1,5.27,1,2
11,10,2,1,1,0,3.05,0,2
11,11,2,1,1,0,2.46,0,2
11,12,2,1,1,0,5.34,0,2
11,13,2,0,1,0,5.37,0,1
11,14,2,1,1,1,5.65,1,2
11,15,2,0,1,0,4.48,0,1
11,16,2,0,0,1,5.61,0,3
11,17,2,1,0,1,4.52,0,4
11,18,2,0,1,1,3.84,1,1
11,19,2,0,0,1,7.76,0,3
11,20,2,1,0,0,4.07,1,4
11,21,2,0,0,0,3.4,1,3
11,22,2,0,1,1,3.86,1,1
11,24,2,1,1,1,6.85,1,2
11,25,2,1,0,0,6.32,1,4
11,26,2,0,0,1,2.56,0,3
11,27,2,1,0,1,9.47,0,4
11,28,2,0,1,1,4.15,1,1
11,29,2,1,1,1,5.1,1,2
11,30,2,0,0,1,2.83,0,3
11,31,2,1,0,0,4.35,1,4
11,32,2,1,1,1,4.15,1,2
11,33,2,1,1,1,3.9,1,2
11,34,2,1,1,0,4.03,0,2
11,35,2,0,1,0,5.92,0,1
11,36,2,0,0,0,3.95,1,3
11,37,2,0,0,0,5.52,1,3
11,38,2,1,0,1,4.19,0,4
11,39,2,0,0,0,5.44,1,3
11,40,2,1,0,1,4.65,0,4
11,41,2,0,1,0,5.16,0,1
11,42,2,0,0,1,9.04,0,3
11,43,2,0,1,1,4.4,1,1
11,44,2,1,0,1,3.66,0,4
11,45,2,0,1,1,4.2,1,1
11,46,2,0,0,0,4.51,1,3
11,47,2,0,1,1,4.29,1,1
11,48,2,0,1,0,4.07,0,1
11,49,2,0,1,0,3.85,0,1
11,50,2,0,0,0,7.28,1,3
11,51,2,1,0,1,3.65,0,4
11,52,2,1,0,1,3.38,0,4
11,53,2,0,1,1,6.81,1,1
11,54,2,0,0,1,4.08,0,3
11,55,2,1,1,0,2.99,0,2
11,56,2,0,1,1,3.78,1,1
11,57,2,1,1,1,4.35,1,2
11,58,2,0,0,1,6.54,0,3
11,59,2,1,0,0,3.27,1,4
11,60,2,1,0,0,2.8,1,4
12,1,2,0,0,1,5.31,0,3
12,2,2,0,1,1,6.78,1,1
12,3,2,1,1,0,8.16,0,2
12,4,2,1,1,1,4.22,1,2
12,5,2,1,0,0,3.8,1,4
12,6,2,1,1,1,4.68,1,2
12,7,2,0,0,1,5.83,0,3
12,8,2,0,1,0,3.85,0,1
12,9,2,1,1,1,5.98,1,2
12,10,2,1,0,1,4.98,0,4
12,11,2,1,0,0,3.95,1,4
12,12,2,0,1,1,5.33,1,1
12,13,2,0,0,1,5.19,0,3
12,14,2,1,1,0,3.72,0,2
12,16,2,1,0,1,7.49,0,4
12,17,2,0,1,1,9.07,1,1
12,18,2,0,0,0,7.05,1,3
12,19,2,0,1,1,3.33,1,1
12,21,2,1,0,0,6.43,1,4
12,22,2,0,1,0,9.4,0,1
12,23,2,1,0,1,6.63,0,4
12,24,2,1,0,1,8.18,0,4
12,25,2,0,0,1,9.83,0,3
12,26,2,1,1,1,3.45,1,2
12,28,2,0,0,1,5.23,0,3
12,29,2,0,0,0,4.45,1,3
12,30,2,0,1,1,5.72,1,1
12,31,2,0,1,0,4.73,0,1
12,32,2,0,0,0,9.5,1,3
12,33,2,0,1,0,7.57,0,1
12,35,2,1,0,1,3.89,0,4
12,36,2,0,1,1,4.8,1,1
12,37,2,0,0,1,5.82,0,3
12,38,2,1,0,1,3.47,0,4
12,40,2,1,0,0,3.8,1,4
12,41,2,1,0,1,7.46,0,4
12,42,2,0,0,1,4.62,0,3
12,43,2,1,1,1,6.03,1,2
12,44,2,0,0,0,3.4,1,3
12,45,2,1,0,0,6.1,1,4
12,46,2,1,1,1,2.73,1,2
12,47,2,1,0,1,4.37,0,4
12,48,2,0,1,0,6.25,0,1
12,50,2,1,0,1,4.13,0,4
12,51,2,0,1,0,9.76,0,1
12,53,2,1,1,0,8.61,0,2
12,54,2,0,0,0,8.03,1,3
12,55,2,0,0,1,7.55,0,3
12,56,2,1,1,1,4.73,1,2
12,57,2,0,1,0,3.79,0,1
12,58,2,0,0,0,5.22,1,3
12,59,2,0,1,0,3.32,0,1
12,60,2,1,1,0,4.91,0,2
13,1,2,1,0,1,2.52,0,4
13,2,2,1,1,1,3.11,1,2
13,3,2,0,1,0,4.37,0,1
13,4,2,1,0,1,2.78,0,4
13,5,2,0,0,0,4.7,1,3
13,6,2,1,1,1,2.89,1,2
13,7,2,0,1,1,4.16,1,1
13,8,2,0,0,1,5.03,0,3
13,9,2,1,1,1,5.52,1,2
13,10,2,1,0,0,3.08,1,4
13,11,2,0,1,1,5.24,1,1
13,12,2,1,0,1,3.36,0,4
13,13,2,0,1,0,4.36,0,1
13,14,2,0,0,0,4.9,1,3
13,15,2,0,0,1,5.12,0,3
13,16,2,1,0,1,3.65,0,4
13,17,2,1,1,0,3.92,0,2
13,18,2,0,0,0,6.98,1,3
13,19,2,1,0,0,4.44,1,4
13,20,2,1,0,1,2.51,0,4
13,21,2,0,1,1,4.25,1,1
13,22,2,1,0,0,2.99,1,4
13,23,2,0,0,1,2.86,0,3
13,24,2,0,0,0,4.08,1,3
13,25,2,1,0,1,3.02,0,4
13,26,2,1,0,1,3.16,0,4
13,27,2,0,0,0,3.24,1,3
13,28,2,0,0,1,4.92,0,3
13,29,2,0,0,1,3.37,0,3
13,30,2,1,0,1,4.02,0,4
13,31,2,0,1,0,5.09,0,1
13,32,2,1,0,1,3.84,0,4
13,33,2,0,1,1,7.66,1,1
13,35,2,0,0,0,4.52,1,3
13,36,2,1,1,1,5.81,1,2
13,37,2,0,1,0,4.07,0,1
13,38,2,0,0,1,5.67,0,3
13,39,2,1,1,0,3.48,0,2
13,40,2,1,1,1,4.89,1,2
13,41,2,0,1,1,4.67,1,1
13,42,2,0,1,1,5.39,1,1
13,43,2,0,0,0,3.88,1,3
13,44,2,1,1,1,2.93,1,2
13,45,2,0,0,1,4.69,0,3
13,46,2,1,0,1,3.1,0,4
13,47,2,0,0,1,3.1,0,3
13,48,2,1,1,1,2.83,1,2
13,49,2,1,1,0,4.33,0,2
13,50,2,1,1,0,5.58,0,2
13,51,2,1,1,1,3.91,1,2
13,52,2,1,0,1,5.38,0,4
13,53,2,1,0,0,7.32,1,4
13,54,2,0,1,1,3.12,1,1
13,55,2,0,1,1,4.82,1,1
13,56,2,1,1,0,4.34,0,2
13,57,2,1,1,1,3.61,1,2
13,58,2,0,1,0,5.12,0,1
13,59,2,1,1,1,3.96,1,2
13,60,2,0,1,0,5.17,0,1
14,1,2,0,1,1,3.07,1,1
14,2,2,1,0,1,2.05,0,4
14,3,2,1,0,1,4.62,0,4
14,4,2,1,1,1,5.8,1,2
14,5,2,1,0,1,3.53,0,4
14,6,2,0,0,0,4.26,1,3
14,7,2,1,1,1,6.16,1,2
14,8,2,0,0,0,5.35,1,3
14,9,2,1,1,0,4.57,0,2
14,10,2,1,0,1,7.19,0,4
14,11,2,1,0,0,6,1,4
14,12,2,0,0,1,5.04,0,3
14,13,2,0,1,1,2.72,1,1
14,14,2,0,1,1,3.75,1,1
14,15,2,1,1,1,2.1,1,2
14,16,2,1,0,1,3.67,0,4
14,17,2,0,0,1,3.17,0,3
14,18,2,1,1,0,5.52,0,2
14,19,2,0,0,1,5.6,0,3
14,20,2,0,1,1,3.36,1,1
14,21,2,1,1,1,5.86,1,2
14,22,2,0,0,1,5.79,0,3
14,23,2,1,0,1,2.4,0,4
14,24,2,1,0,1,4.14,0,4
14,25,2,0,0,1,5.66,0,3
14,26,2,0,1,0,4.15,0,1
14,27,2,0,1,1,2.22,1,1
14,28,2,0,0,0,5.72,1,3
14,29,2,1,0,1,2.3,0,4
14,30,2,1,1,1,2.3,1,2
14,31,2,1,1,0,2.87,0,2
14,32,2,1,0,1,2.46,0,4
14,33,2,0,1,1,3.88,1,1
14,34,2,1,0,1,3.87,0,4
14,35,2,0,0,1,3.99,0,3
14,36,2,0,1,0,5.02,0,1
14,37,2,1,1,1,3.36,1,2
14,38,2,0,1,0,3.38,0,1
14,39,2,1,1,1,2.67,1,2
14,40,2,1,1,1,5.18,1,2
14,41,2,1,0,0,4.36,1,4
14,42,2,0,1,1,5.85,1,1
14,43,2,0,1,0,6.73,0,1
14,44,2,0,1,1,5.72,1,1
14,45,2,1,1,0,3.35,0,2
14,46,2,1,0,1,5.1,0,4
14,47,2,0,0,1,3.47,0,3
14,48,2,1,0,0,5.91,1,4
14,49,2,0,0,1,4.33,0,3
14,50,2,0,1,1,4.39,1,1
14,52,2,1,0,0,3.12,1,4
14,53,2,1,1,1,4.52,1,2
14,54,2,1,1,1,2.4,1,2
14,55,2,0,0,0,6.23,1,3
14,56,2,0,0,1,2.41,0,3
14,57,2,0,1,1,5.96,1,1
14,58,2,0,1,1,4.67,1,1
14,59,2,0,0,1,3.67,0,3
14,60,2,1,1,0,3.71,0,2
15,1,2,0,0,0,2.66,1,3
15,2,2,0,0,1,2.98,0,3
15,3,2,0,1,0,3.09,0,1
15,4,2,1,1,1,4.38,1,2
15,5,2,0,0,0,4.27,1,3
15,6,2,1,1,0,2.73,0,2
15,7,2,0,1,0,2.78,0,1
15,8,2,1,0,1,5.9,0,4
15,9,2,0,0,0,4.45,1,3
15,10,2,1,1,1,3.45,1,2
15,11,2,1,1,0,5.94,0,2
15,12,2,1,0,0,4.32,1,4
15,13,2,0,1,1,3.22,1,1
15,14,2,1,0,0,3.82,1,4
15,15,2,1,0,0,4.41,1,4
15,16,2,1,1,1,4.04,1,2
15,17,2,0,1,0,4.26,0,1
15,18,2,1,1,1,4.72,1,2
15,19,2,1,0,0,6.16,1,4
15,20,2,1,1,1,6.87,1,2
15,21,2,0,1,0,3.42,0,1
15,22,2,0,0,0,3.97,1,3
15,23,2,1,0,0,3.82,1,4
15,24,2,0,1,0,4.19,0,1
15,25,2,1,0,1,4.61,0,4
15,28,2,0,0,0,4.14,1,3
15,29,2,0,1,0,4.39,0,1
15,30,2,1,0,0,4.4,1,4
15,31,2,1,0,0,5.01,1,4
15,32,2,0,1,1,5.1,1,1
15,33,2,0,0,0,2.71,1,3
15,34,2,0,0,1,4.49,0,3
15,35,2,0,1,0,3.41,0,1
15,36,2,0,1,1,4.32,1,1
15,37,2,0,1,1,5.35,1,1
15,39,2,0,1,0,5.63,0,1
15,40,2,1,0,1,4.27,0,4
15,41,2,0,0,0,3.49,1,3
15,42,2,0,0,1,2.96,0,3
15,43,2,1,1,1,2.74,1,2
15,44,2,0,1,1,3.6,1,1
15,45,2,1,1,0,2.44,0,2
15,46,2,0,0,1,2.97,0,3
15,47,2,0,0,0,3.96,1,3
15,48,2,1,1,0,3.34,0,2
15,49,2,1,0,0,2.63,1,4
15,50,2,1,1,0,4.1,0,2
15,51,2,1,0,0,4.34,1,4
15,52,2,1,0,1,2.74,0,4
15,53,2,0,0,0,5.75,1,3
15,54,2,1,1,0,4.12,0,2
15,56,2,0,1,0,4.2,0,1
15,57,2,1,0,0,5.48,1,4
15,58,2,0,0,1,4.26,0,3
15,59,2,1,1,0,4.79,0,2
15,60,2,1,1,1,2.83,1,2
16,1,2,0,0,0,2.58,1,3
16,2,2,1,1,1,2.66,1,2
16,3,2,0,0,1,2.35,0,3
16,4,2,1,0,1,3.35,0,4
16,5,2,0,0,0,2.94,1,3
16,6,2,0,1,1,2.25,1,1
16,7,2,0,1,1,4.38,1,1
16,8,2,0,1,1,2.84,1,1
16,9,2,0,0,1,2.62,0,3
16,10,2,1,0,1,2.68,0,4
16,11,2,1,1,1,2.41,1,2
16,12,2,1,1,1,2.26,1,2
16,13,2,0,1,0,2.48,0,1
16,14,2,1,0,0,3.17,1,4
16,15,2,1,1,0,3.47,0,2
16,16,2,0,1,1,3.79,1,1
16,17,2,1,1,1,2.17,1,2
16,18,2,1,1,1,1.83,1,2
16,19,2,1,0,0,2.76,1,4
16,20,2,0,1,0,2.47,0,1
16,21,2,1,1,0,2.05,0,2
16,22,2,0,0,0,3.13,1,3
16,23,2,0,0,0,2.17,1,3
16,24,2,1,0,1,1.98,0,4
16,25,2,0,0,0,5.03,1,3
16,26,2,1,1,0,2.25,0,2
16,27,2,1,1,1,2.62,1,2
16,28,2,1,1,0,3.08,0,2
16,29,2,1,0,1,2.83,0,4
16,30,2,1,0,1,2.89,0,4
16,31,2,0,0,0,2.9,1,3
16,32,2,0,1,0,2.52,0,1
16,33,2,0,0,1,2.19,0,3
16,34,2,1,0,1,2.12,0,4
16,35,2,1,1,0,2.37,0,2
16,36,2,0,1,0,1.87,0,1
16,37,2,1,0,0,4.28,1,4
16,38,2,1,1,1,2.02,1,2
16,39,2,0,1,1,2.12,1,1
16,40,2,1,0,0,2.02,1,4
16,41,2,0,0,0,3,1,3
16,42,2,0,1,0,2.42,0,1
16,43,2,1,0,1,2.82,0,4
16,44,2,1,1,0,4.64,0,2
16,45,2,1,0,1,2.61,0,4
16,46,2,0,1,0,5.04,0,1
16,47,2,0,0,0,2.27,1,3
16,48,2,1,0,1,2.71,0,4
16,49,2,0,0,0,4.5,1,3
16,50,2,1,1,1,3.54,1,2
16,51,2,1,0,1,3.49,0,4
16,52,2,1,1,1,2.93,1,2
16,53,2,0,0,1,3.77,0,3
16,54,2,0,1,1,3.86,1,1
16,55,2,0,1,1,1.74,1,1
16,56,2,0,0,0,3.67,1,3
16,57,2,1,0,1,2.82,0,4
16,58,2,0,1,0,3,0,1
16,59,2,0,0,1,2.71,0,3
16,60,2,0,1,1,3.17,1,1
17,1,2,0,0,1,3.42,0,3
17,2,2,0,0,0,2.96,1,3
17,3,2,1,1,1,2.2,1,2
17,4,2,1,0,0,3.99,1,4
17,5,2,1,0,1,3.44,0,4
17,6,2,1,1,0,4.33,0,2
17,7,2,0,1,1,3.53,1,1
17,8,2,0,1,0,2.87,0,1
17,9,2,1,1,0,3.57,0,2
17,10,2,0,0,0,4.31,1,3
17,11,2,1,1,1,2.77,1,2
17,12,2,1,0,0,2.86,1,4
17,13,2,1,0,1,2.82,0,4
17,14,2,0,1,1,2.99,1,1
17,15,2,0,0,1,3.18,0,3
17,16,2,1,1,1,2.71,1,2
17,17,2,0,1,0,2.33,0,1
17,18,2,0,1,1,2.09,1,1
17,19,2,0,1,1,2.25,1,1
17,20,2,1,0,1,3.29,0,4
17,21,2,1,1,1,6.32,1,2
17,22,2,0,0,0,2.99,1,3
17,24,2,0,1,1,2.35,1,1
17,25,2,1,1,0,2.07,0,2
17,26,2,0,0,0,5.98,1,3
17,27,2,0,0,1,3.78,0,3
17,28,2,1,0,0,2.89,1,4
17,29,2,0,0,1,2.61,0,3
17,30,2,1,0,1,3.87,0,4
17,31,2,0,1,0,2.94,0,1
17,32,2,1,1,1,2.91,1,2
17,33,2,1,1,0,1.91,0,2
17,34,2,1,0,1,2.65,0,4
17,35,2,1,0,1,2.39,0,4
17,36,2,1,1,0,3.73,0,2
17,37,2,0,0,1,6.28,0,3
17,38,2,0,1,0,3.31,0,1
17,39,2,0,1,1,6.57,1,1
17,40,2,1,0,0,3.13,1,4
17,41,2,0,1,0,2.02,0,1
17,42,2,0,0,1,3.47,0,3
17,43,2,1,1,1,2.68,1,2
17,44,2,0,1,1,3.98,1,1
17,45,2,1,0,1,2.75,0,4
17,47,2,1,1,1,2.81,1,2
17,48,2,0,0,0,3.64,1,3
17,49,2,1,0,1,1.96,0,4
17,50,2,0,0,1,2.8,0,3
17,51,2,1,1,0,2.69,0,2
17,52,2,0,0,0,4.1,1,3
17,53,2,1,1,1,2.22,1,2
17,54,2,0,1,0,4.62,0,1
17,55,2,0,1,1,2.17,1,1
17,56,2,1,0,1,2.9,0,4
17,57,2,1,0,1,2.13,0,4
17,58,2,0,1,0,2.7,0,1
17,59,2,0,0,0,5.42,1,3
17,60,2,0,0,1,2.91,0,3
18,1,2,1,1,0,2.95,0,2
18,2,2,1,1,1,2.58,1,2
18,3,2,1,1,1,2.87,1,2
18,4,2,0,1,1,4.57,1,1
18,5,2,0,1,1,2.6,1,1
18,6,2,1,0,1,3.33,0,4
18,7,2,0,0,1,3.3,0,3
18,8,2,0,0,0,2,1,3
18,9,2,1,0,1,3.79,0,4
18,10,2,0,1,0,3.65,0,1
18,11,2,0,0,1,2.94,0,3
18,12,2,1,0,1,5.83,0,4
18,13,2,1,0,1,2.74,0,4
18,14,2,1,0,1,4.62,0,4
18,15,2,1,1,0,3.77,0,2
18,16,2,0,1,1,2.89,1,1
18,17,2,0,1,0,4.6,0,1
18,19,2,1,1,1,5.28,1,2
18,20,2,0,1,0,4.88,0,1
18,21,2,0,0,0,3.64,1,3
18,22,2,0,1,1,3.32,1,1
18,23,2,1,0,1,5.25,0,4
18,24,2,1,0,1,3.3,0,4
18,25,2,0,0,1,5.25,0,3
18,26,2,0,0,0,3.79,1,3
18,27,2,1,1,1,3.92,1,2
18,28,2,0,1,0,4.18,0,1
18,29,2,1,1,0,5.62,0,2
18,31,2,1,1,0,4.53,0,2
18,32,2,0,1,0,4.55,0,1
18,33,2,0,0,1,3.89,0,3
18,35,2,1,0,0,2.86,1,4
18,36,2,0,1,1,2.69,1,1
18,37,2,1,1,1,4.09,1,2
18,38,2,1,1,0,2.89,0,2
18,39,2,0,1,1,4.82,1,1
18,40,2,1,1,1,4.97,1,2
18,41,2,0,1,0,6.08,0,1
18,42,2,0,0,0,3.78,1,3
18,43,2,0,0,1,3.39,0,3
18,44,2,1,0,1,4.84,0,4
18,45,2,1,1,0,2.77,0,2
18,46,2,1,0,1,4.75,0,4
18,47,2,1,0,1,3.47,0,4
18,48,2,1,0,0,4.47,1,4
18,49,2,0,1,0,2.36,0,1
18,50,2,0,0,1,2.86,0,3
18,51,2,0,0,1,3.7,0,3
18,52,2,1,1,0,4.27,0,2
18,53,2,0,0,1,5.57,0,3
18,54,2,1,1,1,3.88,1,2
18,56,2,0,1,1,2.63,1,1
18,57,2,1,1,1,3.9,1,2
18,58,2,0,0,1,3.15,0,3
18,59,2,0,1,0,4.02,0,1
18,60,2,1,0,1,5.04,0,4
19,1,2,0,0,1,2.4,0,3
19,2,2,0,0,1,2.69,0,3
19,3,2,0,0,1,3.1,0,3
19,4,2,0,1,0,3.02,0,1
19,5,2,1,1,1,3.27,1,2
19,6,2,1,0,1,5.03,0,4
19,7,2,1,0,0,3.1,1,4
19,8,2,0,0,0,3.3,1,3
19,9,2,0,1,0,3.48,0,1
19,10,2,0,0,1,3.64,0,3
19,11,2,0,1,1,5.63,1,1
19,12,2,1,1,1,2.73,1,2
19,13,2,1,0,0,3.04,1,4
19,14,2,0,1,0,4.55,0,1
19,15,2,1,0,0,3.81,1,4
19,16,2,1,0,0,1.87,1,4
19,17,2,0,1,1,2.96,1,1
19,18,2,0,1,0,2.69,0,1
19,19,2,1,0,0,4.08,1,4
19,20,2,1,0,1,2.21,0,4
19,21,2,0,1,1,3.88,1,1
19,22,2,1,1,1,2.89,1,2
19,23,2,1,0,1,3.24,0,4
19,24,2,1,1,1,2.6,1,2
19,25,2,1,1,1,4.15,1,2
19,26,2,1,1,0,2.94,0,2
19,27,2,0,0,1,2.87,0,3
19,28,2,0,0,1,2.6,0,3
19,29,2,0,1,1,2.91,1,1
19,30,2,1,1,1,2.57,1,2
19,31,2,0,1,1,3.28,1,1
19,32,2,1,1,1,3.27,1,2
19,33,2,0,1,0,3.46,0,1
19,35,2,1,0,1,4.58,0,4
19,36,2,0,0,1,4.38,0,3
19,37,2,1,0,1,2.6,0,4
19,38,2,1,1,1,2.75,1,2
19,39,2,1,0,0,2.53,1,4
19,40,2,1,0,1,3.44,0,4
19,41,2,1,1,1,4.63,1,2
19,42,2,1,0,1,3.63,0,4
19,43,2,0,0,1,3.68,0,3
19,44,2,0,1,1,4.02,1,1
19,45,2,0,1,1,3.35,1,1
19,46,2,1,1,1,3.26,1,2
19,47,2,1,1,1,3.04,1,2
19,48,2,0,0,0,6.08,1,3
19,49,2,0,0,1,2.81,0,3
19,50,2,0,0,1,2.38,0,3
19,51,2,1,1,1,3.97,1,2
19,52,2,0,0,0,4.45,1,3
19,53,2,0,0,1,4.28,0,3
19,54,2,0,1,0,2.75,0,1
19,55,2,1,0,1,2.43,0,4
19,56,2,0,0,1,4.73,0,3
19,57,2,1,1,1,1.75,1,2
19,58,2,0,1,1,3.1,1,1
19,59,2,0,1,1,4.02,1,1
19,60,2,1,1,0,3.9,0,2
20,1,2,0,0,1,2.79,0,3
20,2,2,0,1,1,3.6,1,1
20,3,2,1,0,0,2.29,1,4
20,4,2,1,0,1,3.71,0,4
20,5,2,0,1,1,6.21,1,1
20,6,2,0,1,1,4.72,1,1
20,7,2,1,1,1,3.89,1,2
20,8,2,1,1,0,4.05,0,2
20,9,2,1,0,1,2.07,0,4
20,10,2,1,0,0,6.1,1,4
20,11,2,0,0,0,4.29,1,3
20,12,2,1,1,1,2.31,1,2
20,13,2,1,0,0,4.2,1,4
20,14,2,0,0,1,2.69,0,3
20,15,2,1,1,1,2.87,1,2
20,16,2,0,1,0,2.99,0,1
20,17,2,1,1,0,3.6,0,2
20,18,2,1,0,1,5.79,0,4
20,19,2,1,0,1,1.99,0,4
20,20,2,0,1,1,4.89,1,1
20,21,2,1,1,1,3.88,1,2
20,22,2,1,1,0,2.39,0,2
20,23,2,1,0,1,3.52,0,4
20,24,2,0,0,0,3.95,1,3
20,25,2,1,0,1,3.61,0,4
20,26,2,1,1,1,2.45,1,2
20,27,2,0,1,0,4.31,0,1
20,28,2,0,0,1,2.77,0,3
20,29,2,1,1,0,3.61,0,2
20,30,2,0,1,0,4.06,0,1
20,31,2,0,1,1,3.85,1,1
20,32,2,0,1,1,2.87,1,1
20,33,2,1,0,1,3.55,0,4
20,34,2,0,1,1,2.8,1,1
20,35,2,1,0,1,3.2,0,4
20,36,2,0,0,1,2.44,0,3
20,37,2,1,1,0,2.17,0,2
20,38,2,0,0,1,4.47,0,3
20,39,2,0,0,1,2.42,0,3
20,40,2,0,0,1,4.51,0,3
20,41,2,0,0,0,3.77,1,3
20,42,2,0,0,0,4.32,1,3
20,43,2,1,1,1,4.93,1,2
20,44,2,1,1,0,3.81,0,2
20,45,2,1,0,1,3.2,0,4
20,46,2,0,0,1,5.33,0,3
20,47,2,0,0,1,3.03,0,3
20,48,2,1,1,0,3.7,0,2
20,49,2,0,1,1,4.74,1,1
20,50,2,0,1,1,3.1,1,1
20,51,2,0,1,0,3.7,0,1
20,52,2,1,1,0,3.78,0,2
20,54,2,0,1,1,2.47,1,1
20,55,2,0,0,1,4.57,0,3
20,56,2,0,0,0,3.95,1,3
20,57,2,1,0,0,3.56,1,4
20,58,2,1,1,1,2.53,1,2
20,59,2,0,1,1,2.63,1,1
20,60,2,1,0,1,3.68,0,4
21,1,2,1,0,0,7.11,1,4
21,2,2,0,0,1,3.69,0,3
21,3,2,0,0,1,6.68,0,3
21,4,2,1,1,1,4.25,1,2
21,5,2,0,1,0,4.04,0,1
21,6,2,0,1,1,4.92,1,1
21,7,2,0,0,1,6.74,0,3
21,8,2,0,1,0,6.57,0,1
21,9,2,0,1,0,8.3,0,1
21,11,2,0,1,1,3.87,1,1
21,12,2,0,1,1,3.82,1,1
21,13,2,1,1,1,5.08,1,2
21,14,2,0,0,1,5.03,0,3
21,15,2,0,0,1,3.41,0,3
21,16,2,0,1,0,3.26,0,1
21,17,2,1,0,1,3.57,0,4
21,18,2,1,1,1,3.57,1,2
21,19,2,1,0,0,3.45,1,4
21,20,2,0,0,0,5.84,1,3
21,21,2,1,1,1,3.96,1,2
21,22,2,1,1,1,4.79,1,2
21,23,2,0,1,1,8.52,1,1
21,24,2,0,0,0,7.52,1,3
21,25,2,0,0,1,4.36,0,3
21,26,2,0,0,1,4.72,0,3
21,27,2,1,0,1,3.22,0,4
21,28,2,0,0,1,5.2,0,3
21,29,2,1,1,1,5.42,1,2
21,30,2,1,1,0,2.57,0,2
21,31,2,1,0,1,3.95,0,4
21,32,2,1,0,1,4.23,0,4
21,33,2,1,0,1,2.94,0,4
21,34,2,0,0,1,6.71,0,3
21,35,2,0,1,0,6.3,0,1
21,36,2,1,1,1,5.73,1,2
21,37,2,1,1,1,7.05,1,2
21,38,2,0,0,0,4.34,1,3
21,39,2,0,0,0,3.28,1,3
21,40,2,0,1,0,3.25,0,1
21,41,2,1,1,0,6.65,0,2
21,42,2,1,1,1,5.7,1,2
21,43,2,0,1,1,2.56,1,1
21,44,2,1,0,1,4.6,0,4
21,45,2,1,1,1,2.83,1,2
21,46,2,1,0,0,4.21,1,4
21,47,2,1,0,0,3.59,1,4
21,48,2,1,0,0,5.77,1,4
21,49,2,1,1,0,2.8,0,2
21,50,2,1,1,1,3.92,1,2
21,51,2,1,0,1,4.38,0,4
21,52,2,1,0,1,5.73,0,4
21,53,2,0,1,1,4.04,1,1
21,54,2,0,0,0,6.35,1,3
21,55,2,0,1,0,4.45,0,1
21,56,2,0,1,1,4.89,1,1
21,57,2,1,0,1,8.49,0,4
21,58,2,0,0,1,5.69,0,3
21,59,2,1,1,1,5.7,1,2
21,60,2,1,0,1,3.1,0,4
22,1,2,0,1,1,3.19,1,1
22,2,2,0,0,0,3.12,1,3
22,3,2,0,1,1,2.96,1,1
22,4,2,1,0,0,2.27,1,4
22,5,2,1,0,1,3.56,0,4
22,6,2,1,1,1,4.95,1,2
22,7,2,1,1,1,2.59,1,2
22,8,2,1,0,0,3.66,1,4
22,9,2,0,0,1,3.61,0,3
22,10,2,0,1,0,2.89,0,1
22,11,2,1,1,1,2.75,1,2
22,12,2,0,1,0,3.64,0,1
22,13,2,0,1,0,3.2,0,1
22,14,2,1,1,1,2.37,1,2
22,15,2,1,1,1,3.08,1,2
22,16,2,0,0,0,3.81,1,3
22,17,2,0,0,1,2.54,0,3
22,18,2,1,0,1,2.63,0,4
22,19,2,1,1,1,3.03,1,2
22,20,2,1,0,0,3.47,1,4
22,21,2,1,0,1,4.37,0,4
22,22,2,1,0,1,3.44,0,4
22,23,2,0,1,1,3.85,1,1
22,24,2,1,0,1,3.55,0,4
22,25,2,0,0,1,2.15,0,3
22,26,2,0,0,0,2.85,1,3
22,27,2,0,0,1,4.07,0,3
22,28,2,0,0,0,3.93,1,3
22,29,2,0,1,1,2.02,1,1
22,30,2,0,0,1,4.08,0,3
22,31,2,0,0,1,2.68,0,3
22,32,2,0,1,1,2.16,1,1
22,33,2,1,0,1,3.39,0,4
22,34,2,0,0,0,3.94,1,3
22,35,2,1,1,1,4.73,1,2
22,36,2,0,1,1,3.05,1,1
22,37,2,1,1,1,2.75,1,2
22,38,2,0,0,1,2.72,0,3
22,40,2,0,0,0,3.55,1,3
22,41,2,0,0,1,2.85,0,3
22,42,2,0,1,1,2.81,1,1
22,43,2,0,1,0,2.64,0,1
22,44,2,1,1,0,3.05,0,2
22,45,2,1,1,1,2.15,1,2
22,46,2,1,0,1,2.16,0,4
22,47,2,1,1,0,3.25,0,2
22,48,2,0,1,1,3.04,1,1
22,49,2,1,1,1,5.03,1,2
22,50,2,1,0,1,2.97,0,4
22,51,2,1,0,1,2.18,0,4
22,52,2,0,1,1,1.98,1,1
22,53,2,1,1,0,1.91,0,2
22,54,2,0,1,1,2.72,1,1
22,55,2,1,1,1,4.77,1,2
22,56,2,1,0,0,4,1,4
22,57,2,1,0,1,2.1,0,4
22,58,2,0,0,0,3.8,1,3
22,59,2,1,1,1,2.67,1,2
22,60,2,0,1,0,3.09,0,1
23,1,2,0,0,1,3.53,0,3
23,2,2,0,0,1,2.52,0,3
23,3,2,1,1,1,4.59,1,2
23,4,2,1,1,0,2.77,0,2
23,5,2,1,1,1,2.25,1,2
23,6,2,0,0,1,3.01,0,3
23,7,2,0,1,0,3.44,0,1
23,8,2,0,1,0,3.59,0,1
23,9,2,0,0,0,2.83,1,3
23,10,2,1,1,0,2.71,0,2
23,11,2,0,0,1,3.57,0,3
23,12,2,1,0,1,3.26,0,4
23,13,2,0,1,1,3,1,1
23,14,2,0,1,0,3.91,0,1
23,15,2,0,0,1,5.37,0,3
23,16,2,1,1,1,3.19,1,2
23,17,2,0,1,0,1.73,0,1
23,18,2,0,1,1,3.66,1,1
23,19,2,1,1,1,2.52,1,2
23,20,2,1,0,0,2.67,1,4
23,22,2,0,1,0,2.38,0,1
23,23,2,0,1,1,4.35,1,1
23,24,2,0,1,1,2.25,1,1
23,25,2,0,0,1,2.67,0,3
23,26,2,0,1,1,2.16,1,1
23,27,2,1,0,1,2.98,0,4
23,28,2,0,1,0,2.62,0,1
23,29,2,1,0,1,2.7,0,4
23,30,2,1,1,1,2.63,1,2
23,31,2,1,1,0,2.57,0,2
23,32,2,1,1,1,2.19,1,2
23,33,2,1,0,1,3.36,0,4
23,34,2,1,0,1,1.85,0,4
23,35,2,1,0,1,2.61,0,4
23,36,2,1,1,1,2.35,1,2
23,37,2,0,0,0,2.2,1,3
23,38,2,1,0,1,1.99,0,4
23,39,2,0,1,0,2,0,1
23,40,2,0,0,1,1.99,0,3
23,41,2,0,0,0,1.61,1,3
23,42,2,1,0,0,2.41,1,4
23,43,2,1,1,1,3.5,1,2
23,44,2,1,0,1,3.31,0,4
23,45,2,1,1,1,1.98,1,2
23,46,2,1,0,1,2.21,0,4
23,47,2,1,1,1,3.42,1,2
23,48,2,1,1,0,1.62,0,2
23,49,2,1,0,1,1.79,0,4
23,50,2,1,0,0,1.72,1,4
23,51,2,0,0,0,1.84,1,3
23,52,2,0,1,0,2.46,0,1
23,53,2,1,1,0,3.32,0,2
23,54,2,0,1,1,1.87,1,1
23,55,2,0,0,1,2.19,0,3
23,56,2,1,0,0,2.47,1,4
23,57,2,0,1,0,2.46,0,1
23,58,2,0,0,1,3.56,0,3
23,59,2,0,0,0,1.91,1,3
23,60,2,0,0,1,2.8,0,3
24,1,2,0,0,0,2.7,1,3
24,2,2,0,1,0,4.22,0,1
24,3,2,1,1,0,3.73,0,2
24,4,2,1,1,1,5.79,1,2
24,5,2,0,1,1,2.14,1,1
24,6,2,0,0,0,3.67,1,3
24,7,2,0,1,0,3.22,0,1
24,10,2,1,0,1,2.68,0,4
24,12,2,1,0,1,2.6,0,4
24,13,2,1,1,1,3.78,1,2
24,14,2,1,1,1,2.09,1,2
24,15,2,1,1,0,2.5,0,2
24,16,2,1,0,0,2.07,1,4
24,17,2,1,0,1,3.64,0,4
24,19,2,1,0,1,2.84,0,4
24,20,2,1,0,1,4.58,0,4
24,21,2,0,1,1,2.98,1,1
24,22,2,1,1,1,5.09,1,2
24,23,2,0,0,0,3.25,1,3
24,24,2,0,1,0,2.2,0,1
24,25,2,0,0,0,6.79,1,3
24,26,2,0,1,1,2.24,1,1
24,27,2,1,1,0,4.88,0,2
24,28,2,0,0,0,5.32,1,3
24,29,2,1,0,1,1.77,0,4
24,30,2,1,0,1,1.63,0,4
24,31,2,1,1,1,1.94,1,2
24,32,2,0,1,0,2.69,0,1
24,33,2,1,0,0,2.55,1,4
24,34,2,1,1,1,1.89,1,2
24,35,2,1,0,1,2.97,0,4
24,36,2,0,0,1,2.53,0,3
24,37,2,1,1,0,1.56,0,2
24,38,2,0,0,0,2.17,1,3
24,39,2,0,0,0,3.47,1,3
24,40,2,0,1,0,3.66,0,1
24,41,2,1,1,1,6.33,1,2
24,42,2,0,1,0,2.99,0,1
24,43,2,1,0,0,3.07,1,4
24,44,2,0,0,1,2.46,0,3
24,45,2,0,1,0,2.39,0,1
24,46,2,1,1,0,2.58,0,2
24,47,2,1,0,0,1.58,1,4
24,48,2,1,0,0,4.33,1,4
24,49,2,0,0,0,2.54,1,3
24,50,2,0,0,0,3.09,1,3
24,51,2,0,0,0,3.24,1,3
24,52,2,1,0,1,3.45,0,4
24,53,2,0,1,0,2.6,0,1
24,54,2,0,1,1,4.5,1,1
24,55,2,0,1,1,3.05,1,1
24,57,2,1,0,1,2.9,0,4
25,1,2,1,1,1,3.24,1,2
25,2,2,1,1,1,3.32,1,2
25,3,2,0,0,0,3.16,1,3
25,4,2,0,1,1,4.21,1,1
25,5,2,0,0,0,4.72,1,3
25,6,2,1,1,1,4.82,1,2
25,7,2,1,1,1,4.79,1,2
25,8,2,1,1,1,4.45,1,2
25,9,2,0,1,0,5.32,0,1
25,10,2,0,1,1,4.28,1,1
25,11,2,1,0,1,4.55,0,4
25,12,2,1,1,1,5.49,1,2
25,13,2,0,0,1,3.23,0,3
25,14,2,1,0,1,4.57,0,4
25,15,2,1,1,1,6.75,1,2
25,16,2,0,1,1,4.46,1,1
25,17,2,1,1,1,5.56,1,2
25,18,2,0,1,0,4.41,0,1
25,19,2,0,1,1,3.55,1,1
25,20,2,0,1,1,4.6,1,1
25,21,2,0,1,1,6.81,1,1
25,22,2,0,0,0,3.87,1,3
25,23,2,0,0,1,4.22,0,3
25,24,2,1,0,1,3.86,0,4
25,25,2,0,0,0,3.82,1,3
25,26,2,0,0,1,5.66,0,3
25,27,2,0,0,0,3.47,1,3
25,28,2,1,0,0,5.21,1,4
25,29,2,1,0,1,5.1,0,4
25,30,2,1,1,0,6,0,2
25,31,2,0,0,1,6.15,0,3
25,32,2,0,0,1,5.44,0,3
25,33,2,1,0,1,5.81,0,4
25,34,2,0,1,1,3.6,1,1
25,35,2,1,0,1,3.29,0,4
25,36,2,0,1,1,4.34,1,1
25,37,2,0,0,1,5.47,0,3
25,38,2,1,0,0,5.4,1,4
25,39,2,0,1,1,3.82,1,1
25,40,2,1,0,1,4.43,0,4
25,41,2,1,0,1,4.43,0,4
25,42,2,0,1,0,2.9,0,1
25,44,2,0,0,0,5.54,1,3
25,45,2,0,1,1,4.2,1,1
25,46,2,0,0,0,5.58,1,3
25,47,2,1,0,0,4.11,1,4
25,48,2,1,1,0,3.99,0,2
25,49,2,1,1,1,3.84,1,2
25,50,2,1,1,1,3.47,1,2
25,51,2,0,1,1,2.57,1,1
25,52,2,1,1,0,3.92,0,2
25,53,2,1,0,1,3.39,0,4
25,54,2,1,1,1,6.54,1,2
25,55,2,0,0,1,5.2,0,3
25,56,2,1,1,0,4.56,0,2
25,57,2,0,1,1,4.45,1,1
25,58,2,1,0,0,4.86,1,4
25,59,2,0,0,0,3.92,1,3
25,60,2,1,0,0,5.73,1,4
26,1,2,1,1,1,3.3,1,2
26,2,2,0,0,0,4.63,1,3
26,3,2,0,0,1,4.15,0,3
26,4,2,1,1,0,4.37,0,2
26,5,2,0,1,1,4.35,1,1
26,6,2,0,0,1,4.97,0,3
26,7,2,0,1,0,2.98,0,1
26,8,2,1,1,0,3,0,2
26,9,2,0,0,0,3.17,1,3
26,10,2,1,1,1,3.46,1,2
26,11,2,1,0,1,4.05,0,4
26,12,2,1,0,0,3.37,1,4
26,13,2,1,1,0,3.42,0,2
26,14,2,1,0,1,2.55,0,4
26,15,2,0,1,1,4.23,1,1
26,16,2,0,1,1,4.35,1,1
26,17,2,1,0,0,5.02,1,4
26,18,2,1,0,1,3.21,0,4
26,19,2,0,1,0,4.3,0,1
26,20,2,0,0,0,2.67,1,3
26,21,2,0,0,0,2.37,1,3
26,22,2,0,0,1,2.57,0,3
26,23,2,1,0,1,3.92,0,4
26,24,2,0,0,1,3,0,3
26,25,2,0,0,1,4.86,0,3
26,26,2,1,0,1,2.32,0,4
26,27,2,0,0,0,6.67,1,3
26,28,2,0,1,0,3.02,0,1
26,29,2,0,1,0,3.65,0,1
26,30,2,0,0,0,4.94,1,3
26,32,2,0,1,0,4.75,0,1
26,33,2,1,1,1,2.59,1,2
26,34,2,0,0,1,2.71,0,3
26,35,2,0,1,1,2.75,1,1
26,36,2,0,1,0,2.33,0,1
26,37,2,1,0,0,3.67,1,4
26,38,2,1,1,1,2.02,1,2
26,39,2,0,1,0,3.29,0,1
26,40,2,1,1,1,3.79,1,2
26,41,2,0,1,1,3.48,1,1
26,42,2,0,0,1,5.03,0,3
26,43,2,0,1,1,3.78,1,1
26,44,2,1,1,0,2.45,0,2
26,45,2,1,1,0,3.74,0,2
26,46,2,1,0,0,2.4,1,4
26,48,2,1,1,1,3.02,1,2
26,49,2,1,1,1,2.43,1,2
26,50,2,1,0,0,3.43,1,4
26,51,2,1,1,0,3.62,0,2
26,52,2,1,1,1,3.84,1,2
26,53,2,1,0,1,3.05,0,4
26,54,2,1,1,1,2.55,1,2
26,55,2,0,1,1,3.08,1,1
26,56,2,0,0,1,3.12,0,3
26,57,2,0,0,0,2.52,1,3
26,58,2,1,0,0,2.2,1,4
26,59,2,1,0,1,2.22,0,4
26,60,2,1,0,1,3.42,0,4
27,1,2,1,1,1,7,1,2
27,2,2,0,1,1,2.75,1,1
27,3,2,0,0,1,3.97,0,3
27,4,2,0,0,1,4.12,0,3
27,5,2,1,1,1,7.13,1,2
27,6,2,1,0,0,3.26,1,4
27,7,2,0,0,0,6.57,1,3
27,9,2,1,1,1,2.95,1,2
27,10,2,1,0,0,4.41,1,4
27,11,2,0,1,1,3.03,1,1
27,12,2,0,1,1,6.87,1,1
27,13,2,0,0,1,4.98,0,3
27,14,2,1,1,1,5.17,1,2
27,15,2,1,1,1,4.86,1,2
27,16,2,1,1,1,5.25,1,2
27,17,2,0,0,1,3.12,0,3
27,18,2,0,0,1,3.88,0,3
27,19,2,0,1,0,7.36,0,1
27,20,2,0,1,1,4.5,1,1
27,21,2,0,1,0,4.92,0,1
27,22,2,0,1,1,4.44,1,1
27,23,2,0,0,1,4.69,0,3
27,24,2,0,1,1,5.61,1,1
27,25,2,0,1,1,6.98,1,1
27,26,2,0,0,0,4.47,1,3
27,27,2,1,0,1,4.58,0,4
27,28,2,0,1,1,6.12,1,1
27,29,2,1,1,1,3.47,1,2
27,30,2,1,0,1,5.28,0,4
27,31,2,1,0,1,3.42,0,4
27,32,2,1,1,1,4.61,1,2
27,33,2,1,0,1,3.09,0,4
27,34,2,1,1,1,4.72,1,2
27,35,2,0,0,0,7.15,1,3
27,36,2,0,1,0,3.46,0,1
27,37,2,1,1,1,3.72,1,2
27,38,2,1,0,0,5.62,1,4
27,39,2,1,0,1,4.22,0,4
27,40,2,0,1,0,7.79,0,1
27,41,2,1,1,1,3.87,1,2
27,42,2,0,0,1,3.57,0,3
27,43,2,0,1,1,3.67,1,1
27,44,2,0,0,1,5.47,0,3
27,45,2,0,1,1,4.02,1,1
27,46,2,1,0,1,5.1,0,4
27,47,2,1,0,1,6.82,0,4
27,48,2,0,0,1,4.57,0,3
27,49,2,1,1,1,4.45,1,2
27,50,2,1,1,1,2.81,1,2
27,51,2,0,0,1,3.03,0,3
27,52,2,1,0,1,3.5,0,4
27,53,2,1,0,0,5.47,1,4
27,54,2,0,1,1,5.32,1,1
27,55,2,1,0,0,7.03,1,4
27,56,2,1,0,1,3.63,0,4
27,57,2,1,0,1,2.8,0,4
27,58,2,0,0,1,3.1,0,3
27,59,2,1,1,1,5.02,1,2
27,60,2,1,1,0,6.29,0,2
28,1,2,1,0,0,2.17,1,4
28,2,2,0,1,1,3.6,1,1
28,3,2,0,0,0,3.02,1,3
28,4,2,1,0,1,2.61,0,4
28,5,2,0,1,1,4.9,1,1
28,6,2,1,0,1,2.95,0,4
28,7,2,0,0,1,3.28,0,3
28,8,2,1,1,0,4.26,0,2
28,9,2,1,1,1,1.89,1,2
28,10,2,0,1,1,2.03,1,1
28,11,2,0,1,0,3.95,0,1
28,12,2,0,0,1,3.12,0,3
28,13,2,0,0,0,5.58,1,3
28,14,2,1,0,0,2.92,1,4
28,15,2,0,1,0,3.61,0,1
28,16,2,1,0,1,3.44,0,4
28,17,2,0,0,1,7.3,0,3
28,18,2,1,1,1,3.15,1,2
28,19,2,0,1,0,4.15,0,1
28,20,2,0,0,0,3.47,1,3
28,21,2,0,0,1,5.67,0,3
28,22,2,1,1,1,4.45,1,2
28,23,2,1,1,1,2.43,1,2
28,24,2,1,1,0,5.09,0,2
28,25,2,0,1,1,4.41,1,1
28,26,2,1,1,1,2.28,1,2
28,27,2,1,0,1,3.7,0,4
28,28,2,1,1,1,2.28,1,2
28,29,2,1,1,0,2.51,0,2
28,30,2,0,1,0,1.93,0,1
28,31,2,1,1,0,3.43,0,2
28,32,2,1,0,1,3.3,0,4
28,33,2,1,1,1,2.83,1,2
28,34,2,0,0,1,3.03,0,3
28,36,2,1,0,0,2.33,1,4
28,37,2,1,1,0,4.07,0,2
28,38,2,1,0,0,2.06,1,4
28,39,2,1,1,1,3,1,2
28,40,2,0,0,0,2.63,1,3
28,41,2,0,0,1,2.12,0,3
28,42,2,0,0,1,4.18,0,3
28,43,2,0,1,0,2.7,0,1
28,44,2,0,1,0,1.88,0,1
28,45,2,0,1,1,2.13,1,1
28,46,2,1,0,0,2.39,1,4
28,47,2,1,1,1,3.68,1,2
28,49,2,1,0,1,2.71,0,4
28,50,2,1,1,1,4.45,1,2
28,51,2,0,0,0,2.8,1,3
28,52,2,1,0,1,4.13,0,4
28,53,2,1,0,1,2.69,0,4
28,54,2,0,0,1,3.24,0,3
28,55,2,0,1,0,2.5,0,1
28,56,2,0,1,0,5.53,0,1
28,57,2,1,0,0,2.37,1,4
28,58,2,0,1,1,1.93,1,1
28,59,2,0,0,0,3.19,1,3
28,60,2,0,0,0,3.51,1,3
29,1,2,0,0,0,2.12,1,3
29,2,2,1,0,1,3.4,0,4
29,3,2,1,1,1,3.39,1,2
29,4,2,1,1,0,2.43,0,2
29,5,2,0,1,1,5.72,1,1
29,6,2,1,1,1,2.7,1,2
29,7,2,1,0,1,2.77,0,4
29,8,2,0,0,1,3,0,3
29,9,2,0,1,0,2.51,0,1
29,10,2,0,0,1,7.92,0,3
29,11,2,0,1,1,2,1,1
29,12,2,0,0,0,5.15,1,3
29,13,2,0,1,0,2.92,0,1
29,14,2,0,1,0,3.05,0,1
29,15,2,0,0,0,2.8,1,3
29,16,2,1,0,0,2.02,1,4
29,17,2,0,1,1,2.9,1,1
29,18,2,0,1,0,2.17,0,1
29,19,2,1,0,1,3.05,0,4
29,20,2,0,1,0,2.69,0,1
29,21,2,1,1,1,3.6,1,2
29,22,2,0,0,0,2.13,1,3
29,23,2,1,0,0,5.27,1,4
29,24,2,0,1,1,2.45,1,1
29,25,2,0,1,1,4.45,1,1
29,26,2,0,1,0,3.65,0,1
29,27,2,1,0,1,3.93,0,4
29,28,2,1,1,1,2.58,1,2
29,29,2,0,0,1,3.35,0,3
29,30,2,1,1,0,2.87,0,2
29,31,2,1,1,0,3.7,0,2
29,32,2,1,0,0,2.93,1,4
29,33,2,1,1,0,2.09,0,2
29,34,2,0,0,0,5.13,1,3
29,35,2,0,0,1,4,0,3
29,36,2,0,0,0,2.04,1,3
29,37,2,0,0,0,2.88,1,3
29,38,2,1,0,0,3.4,1,4
29,39,2,0,0,1,3.5,0,3
29,40,2,0,1,1,2.6,1,1
29,41,2,1,0,1,2.67,0,4
29,42,2,1,1,1,3.45,1,2
29,44,2,1,0,0,3.7,1,4
29,45,2,1,1,1,3.37,1,2
29,46,2,0,0,1,2.45,0,3
29,47,2,1,1,0,5.09,0,2
29,48,2,1,0,0,3.35,1,4
29,49,2,0,1,0,2.98,0,1
29,50,2,1,1,1,2.78,1,2
29,51,2,1,0,0,2.22,1,4
29,52,2,1,1,1,3.4,1,2
29,53,2,0,1,0,2.16,0,1
29,54,2,0,1,0,2.84,0,1
29,55,2,1,1,1,4.01,1,2
29,56,2,0,0,1,2.67,0,3
29,57,2,1,0,1,3.68,0,4
29,58,2,0,0,1,2.25,0,3
29,59,2,1,0,1,3.04,0,4
29,60,2,1,1,1,2.45,1,2
30,1,2,1,0,1,4.78,0,4
30,2,2,1,0,1,5.17,0,4
30,3,2,0,1,1,5.82,1,1
30,4,2,1,0,1,4.03,0,4
30,5,2,0,0,0,4.53,1,3
30,6,2,1,1,0,7.65,0,2
30,7,2,0,0,1,3.05,0,3
30,8,2,1,1,1,3.81,1,2
30,9,2,0,0,0,5.81,1,3
30,10,2,1,1,1,7.62,1,2
30,11,2,0,1,0,9.06,0,1
30,12,2,1,0,0,9.02,1,4
30,13,2,0,1,1,5.24,1,1
30,14,2,1,1,1,5.31,1,2
30,15,2,1,0,0,7.23,1,4
30,16,2,0,1,1,5.05,1,1
30,17,2,0,0,0,5.13,1,3
30,18,2,0,0,1,5.65,0,3
30,19,2,0,0,1,6.17,0,3
30,20,2,1,1,0,5.65,0,2
30,21,2,0,0,0,5.89,1,3
30,22,2,1,1,1,6.35,1,2
30,23,2,1,1,0,4.28,0,2
30,24,2,1,0,1,4.83,0,4
30,25,2,0,1,1,4.74,1,1
30,26,2,1,1,0,7.18,0,2
30,27,2,0,0,1,4.73,0,3
30,28,2,1,1,0,2.87,0,2
30,29,2,0,0,1,5.14,0,3
30,30,2,0,0,1,4.11,0,3
30,31,2,1,0,1,6.04,0,4
30,32,2,1,0,0,4.26,1,4
30,33,2,1,1,1,4,1,2
30,34,2,1,0,0,4.21,1,4
30,35,2,0,1,0,4.08,0,1
30,36,2,0,1,1,5.52,1,1
30,38,2,0,0,0,6.9,1,3
30,39,2,0,1,1,7.82,1,1
30,40,2,1,1,1,7.66,1,2
30,41,2,0,1,1,7.02,1,1
30,42,2,0,1,0,4.85,0,1
30,43,2,0,1,1,3.3,1,1
30,44,2,0,1,1,7.74,1,1
30,45,2,0,1,0,4.28,0,1
30,46,2,0,0,1,4.22,0,3
30,47,2,1,0,1,3.81,0,4
30,48,2,1,0,0,5.2,1,4
30,49,2,0,0,1,3.61,0,3
30,50,2,1,1,1,7,1,2
30,51,2,1,1,1,5.3,1,2
30,52,2,1,0,1,4.05,0,4
30,53,2,1,0,1,2.74,0,4
30,54,2,1,0,0,3.54,1,4
30,55,2,1,1,0,8.16,0,2
30,56,2,0,1,1,5.26,1,1
30,58,2,1,1,1,6.25,1,2
30,59,2,1,0,1,3.31,0,4
30,60,2,0,0,1,3.78,0,3
31,1,2,1,0,1,1.9,0,4
31,2,2,1,1,1,2.45,1,2
31,3,2,1,0,0,2.97,1,4
31,4,2,1,0,0,3.97,1,4
31,5,2,1,1,1,2.58,1,2
31,6,2,0,1,1,2.77,1,1
31,7,2,0,0,1,3.7,0,3
31,8,2,1,1,1,3.19,1,2
31,9,2,1,1,1,2.79,1,2
31,10,2,0,0,1,3.13,0,3
31,11,2,1,1,1,2.78,1,2
31,12,2,0,1,1,4.47,1,1
31,13,2,1,1,0,4,0,2
31,14,2,1,1,1,3.4,1,2
31,15,2,1,1,1,2.14,1,2
31,16,2,0,0,1,5.27,0,3
31,17,2,0,1,0,1.64,0,1
31,18,2,0,0,1,2.05,0,3
31,19,2,0,1,0,5.35,0,1
31,20,2,1,1,1,3.07,1,2
31,21,2,0,0,1,1.8,0,3
31,22,2,1,0,0,7.02,1,4
31,23,2,0,1,0,7.62,0,1
31,24,2,1,0,1,5.88,0,4
31,25,2,1,0,1,2.12,0,4
31,26,2,0,1,1,1.74,1,1
31,27,2,0,0,1,4.14,0,3
31,28,2,0,0,1,2.79,0,3
31,29,2,0,0,1,2.64,0,3
31,30,2,0,1,0,2.63,0,1
31,31,2,0,0,1,2.07,0,3
31,32,2,0,0,1,2.43,0,3
31,33,2,1,0,0,5.55,1,4
31,34,2,0,1,0,2.84,0,1
31,35,2,0,1,1,3.29,1,1
31,36,2,1,1,0,2.33,0,2
31,37,2,1,0,1,6.12,0,4
31,38,2,1,0,1,3.49,0,4
31,40,2,1,0,0,3.22,1,4
31,41,2,0,1,1,3.65,1,1
31,42,2,0,0,1,6.08,0,3
31,43,2,1,1,1,4.04,1,2
31,44,2,1,0,1,6.49,0,4
31,45,2,0,0,0,2.69,1,3
31,46,2,0,1,0,5.21,0,1
31,47,2,0,1,0,1.91,0,1
31,48,2,0,0,0,1.82,1,3
31,49,2,1,1,1,3.04,1,2
31,50,2,1,1,1,4.35,1,2
31,51,2,0,0,1,4.5,0,3
31,52,2,1,0,1,3.85,0,4
31,53,2,0,0,1,2.8,0,3
31,54,2,1,1,0,5.2,0,2
31,56,2,1,0,1,4.41,0,4
31,57,2,0,1,1,2.14,1,1
31,58,2,0,1,0,5.15,0,1
31,59,2,1,1,1,2.25,1,2
31,60,2,1,0,1,3.55,0,4
32,1,2,0,1,1,3.21,1,1
32,2,2,1,0,1,3.1,0,4
32,3,2,0,0,1,3.69,0,3
32,4,2,0,0,0,3.74,1,3
32,5,2,0,0,0,2.97,1,3
32,6,2,1,0,0,3.75,1,4
32,7,2,1,0,0,5.82,1,4
32,8,2,0,1,1,3,1,1
32,9,2,0,0,1,4.11,0,3
32,10,2,1,0,1,5.62,0,4
32,11,2,1,0,1,4.48,0,4
32,12,2,0,0,0,3.72,1,3
32,13,2,1,0,1,3.17,0,4
32,14,2,0,1,0,3.94,0,1
32,15,2,1,0,0,3.09,1,4
32,16,2,0,1,1,4.09,1,1
32,17,2,1,0,1,3.28,0,4
32,18,2,1,0,1,4.84,0,4
32,19,2,0,1,1,4.59,1,1
32,20,2,1,1,0,3.65,0,2
32,21,2,1,1,1,3.08,1,2
32,22,2,1,0,0,3.58,1,4
32,23,2,0,1,0,5.32,0,1
32,24,2,1,1,0,6.52,0,2
32,25,2,1,1,1,5.79,1,2
32,26,2,0,1,0,4.35,0,1
32,27,2,0,0,1,3.08,0,3
32,28,2,0,1,1,4.95,1,1
32,29,2,1,1,0,4.57,0,2
32,30,2,1,1,1,3.41,1,2
32,31,2,0,1,1,3.05,1,1
32,32,2,1,1,0,5.47,0,2
32,33,2,0,0,1,6.25,0,3
32,34,2,0,1,1,2.65,1,1
32,35,2,0,0,1,4.07,0,3
32,36,2,0,1,0,6.29,0,1
32,37,2,0,1,1,5.12,1,1
32,38,2,0,1,1,2.79,1,1
32,39,2,1,1,1,2.93,1,2
32,40,2,0,0,0,6.27,1,3
32,41,2,1,1,1,4.58,1,2
32,42,2,1,0,1,3.57,0,4
32,43,2,1,1,1,2.71,1,2
32,44,2,1,1,1,3.59,1,2
32,45,2,0,0,1,3.94,0,3
32,46,2,1,0,1,3.72,0,4
32,47,2,0,0,0,4.26,1,3
32,48,2,0,1,1,3.82,1,1
32,49,2,1,0,1,3.12,0,4
32,50,2,1,0,1,3.05,0,4
32,51,2,0,0,1,2.67,0,3
32,52,2,1,1,1,4.4,1,2
32,53,2,0,0,0,5.44,1,3
32,54,2,0,0,1,3.77,0,3
32,55,2,0,0,0,3.12,1,3
32,56,2,1,1,1,3.35,1,2
32,57,2,1,0,0,3.42,1,4
32,58,2,1,1,1,4.12,1,2
32,59,2,0,1,0,5.79,0,1
32,60,2,1,1,1,3.55,1,2
33,1,2,1,1,0,2.81,0,2
33,2,2,1,1,1,2.42,1,2
33,3,2,1,1,1,2.12,1,2
33,4,2,0,0,1,2.11,0,3
33,5,2,1,0,1,3.4,0,4
33,6,2,1,1,1,3.48,1,2
33,7,2,0,0,0,2.52,1,3
33,8,2,1,1,0,2.25,0,2
33,9,2,1,1,1,2.04,1,2
33,10,2,1,0,1,3.5,0,4
33,11,2,0,0,1,2.2,0,3
33,12,2,1,1,1,2.21,1,2
33,13,2,1,0,1,2.37,0,4
33,14,2,1,1,1,2.02,1,2
33,15,2,0,0,0,3.22,1,3
33,16,2,0,1,1,3.37,1,1
33,17,2,1,0,1,2.07,0,4
33,18,2,0,0,1,2.28,0,3
33,19,2,1,0,1,1.76,0,4
33,20,2,1,0,1,1.73,0,4
33,21,2,1,1,1,1.85,1,2
33,22,2,0,1,1,2.17,1,1
33,23,2,1,0,0,2.73,1,4
33,24,2,0,0,1,1.96,0,3
33,25,2,0,1,0,2.43,0,1
33,26,2,1,0,1,2.6,0,4
33,27,2,0,1,0,2.24,0,1
33,28,2,1,0,0,2.05,1,4
33,29,2,0,1,1,2.31,1,1
33,30,2,1,1,1,2.17,1,2
33,31,2,1,0,1,3.05,0,4
33,32,2,0,1,1,3.46,1,1
33,33,2,0,1,0,2.81,0,1
33,34,2,0,0,0,2.31,1,3
33,35,2,1,0,1,2.37,0,4
33,36,2,1,1,1,2.81,1,2
33,37,2,0,1,0,2.61,0,1
33,38,2,0,1,0,3.3,0,1
33,39,2,0,0,1,2.17,0,3
33,41,2,1,1,1,2.2,1,2
33,42,2,1,0,1,3.36,0,4
33,43,2,0,0,0,2.89,1,3
33,44,2,0,0,1,3.69,0,3
33,45,2,0,0,0,2.31,1,3
33,46,2,1,1,1,3.37,1,2
33,47,2,0,1,0,2.94,0,1
33,48,2,0,1,0,3.7,0,1
33,49,2,1,1,0,1.75,0,2
33,50,2,1,0,1,1.98,0,4
33,51,2,0,1,0,3.21,0,1
33,52,2,0,1,1,2.82,1,1
33,53,2,0,1,1,2.67,1,1
33,54,2,1,1,1,2.37,1,2
33,55,2,0,1,1,2.51,1,1
33,56,2,0,0,1,2.15,0,3
33,57,2,0,0,0,1.63,1,3
33,58,2,1,0,1,3.19,0,4
33,59,2,0,0,1,2.34,0,3
33,60,2,1,0,0,3.04,1,4
34,1,2,0,1,1,2.74,1,1
34,2,2,1,0,0,2.38,1,4
34,3,2,1,1,0,2.38,0,2
34,4,2,1,1,1,2.5,1,2
34,5,2,1,0,1,2.15,0,4
34,6,2,0,0,0,2.57,1,3
34,7,2,1,0,0,2.91,1,4
34,8,2,0,0,1,2.07,0,3
34,9,2,0,1,1,2.17,1,1
34,10,2,0,0,1,2.39,0,3
34,11,2,0,1,0,2.95,0,1
34,12,2,0,1,1,2.85,1,1
34,13,2,0,0,0,3.42,1,3
34,14,2,1,0,1,1.97,0,4
34,15,2,0,1,1,3.22,1,1
34,16,2,0,0,0,2.6,1,3
34,17,2,0,1,0,3.87,0,1
34,18,2,1,1,1,1.87,1,2
34,19,2,1,1,1,1.47,1,2
34,20,2,0,0,0,1.92,1,3
34,21,2,1,0,1,1.65,0,4
34,22,2,1,1,1,2.03,1,2
34,23,2,1,1,1,1.85,1,2
34,24,2,1,1,1,2.12,1,2
34,25,2,1,0,1,3.2,0,4
34,26,2,0,0,1,2.33,0,3
34,27,2,1,0,1,1.62,0,4
34,29,2,0,0,1,1.25,0,3
34,30,2,0,1,1,2.39,1,1
34,31,2,0,0,1,2.22,0,3
34,32,2,1,0,1,1.63,0,4
34,33,2,0,1,0,2.39,0,1
34,34,2,1,0,1,3.48,0,4
34,35,2,0,1,1,1.26,1,1
34,36,2,1,1,1,4.25,1,2
34,37,2,1,0,1,1.42,0,4
34,38,2,0,0,0,1.77,1,3
34,40,2,1,1,1,3.13,1,2
34,41,2,1,1,1,2.1,1,2
34,42,2,0,0,1,2.28,0,3
34,43,2,0,1,0,2.12,0,1
34,44,2,1,0,0,2.42,1,4
34,45,2,1,0,0,1.56,1,4
34,46,2,1,1,1,2.36,1,2
34,47,2,0,1,0,1.7,0,1
34,48,2,0,0,1,3.63,0,3
34,49,2,1,1,0,1.68,0,2
34,50,2,1,0,1,3.28,0,4
34,51,2,0,1,1,1.98,1,1
34,52,2,0,0,0,1.83,1,3
34,53,2,1,1,1,2.22,1,2
34,54,2,0,1,0,3.83,0,1
34,55,2,0,0,0,1.37,1,3
34,56,2,0,1,0,3.75,0,1
34,57,2,1,1,1,1.61,1,2
34,58,2,1,1,0,2.49,0,2
34,59,2,1,0,1,1.75,0,4
34,60,2,0,1,0,2.53,0,1
35,1,2,0,1,0,2.08,0,1
35,2,2,0,0,1,2.17,0,3
35,3,2,1,1,1,1.28,1,2
35,4,2,1,1,1,2.13,1,2
35,5,2,1,0,1,2.18,0,4
35,6,2,0,0,1,2.02,0,3
35,7,2,0,1,0,4.1,0,1
35,8,2,0,0,1,1.91,0,3
35,9,2,1,1,0,4.33,0,2
35,10,2,0,0,1,2.02,0,3
35,11,2,1,0,1,2.71,0,4
35,12,2,0,1,0,2.94,0,1
35,13,2,0,1,0,5.83,0,1
35,14,2,1,1,1,1.63,1,2
35,15,2,1,1,0,2.64,0,2
35,16,2,1,1,0,4.76,0,2
35,17,2,0,0,1,2.37,0,3
35,18,2,1,0,1,1.37,0,4
35,19,2,0,0,1,2.32,0,3
35,20,2,1,0,1,1.64,0,4
35,21,2,0,1,0,2.42,0,1
35,22,2,0,1,1,2.86,1,1
35,23,2,1,0,1,1.77,0,4
35,24,2,0,1,1,3.1,1,1
35,25,2,1,0,1,1.56,0,4
35,26,2,0,1,1,1.53,1,1
35,27,2,0,0,1,5.31,0,3
35,28,2,1,1,1,2.35,1,2
35,29,2,1,0,0,3.62,1,4
35,30,2,0,0,1,3.35,0,3
35,31,2,1,0,0,5.05,1,4
35,33,2,1,1,1,6.21,1,2
35,34,2,1,1,1,1.43,1,2
35,35,2,0,0,0,5.43,1,3
35,36,2,0,0,1,3.21,0,3
35,37,2,0,0,1,2.4,0,3
35,38,2,0,1,0,2.08,0,1
35,39,2,1,0,1,4.25,0,4
35,40,2,0,1,1,2.66,1,1
35,41,2,0,1,1,3.66,1,1
35,42,2,0,0,1,3.22,0,3
35,43,2,1,1,0,2.13,0,2
35,44,2,1,0,0,2.53,1,4
35,45,2,1,0,1,2.1,0,4
35,46,2,1,1,1,3.26,1,2
35,47,2,0,1,1,1.37,1,1
35,48,2,1,1,1,2.65,1,2
35,49,2,0,0,1,3.41,0,3
35,50,2,0,0,0,2.91,1,3
35,51,2,1,0,1,1.53,0,4
35,52,2,0,1,0,2.87,0,1
35,53,2,1,0,1,2,0,4
35,54,2,0,1,0,2.2,0,1
35,55,2,1,1,1,2.03,1,2
35,56,2,1,1,1,4.09,1,2
35,57,2,1,1,0,3.4,0,2
35,58,2,0,1,1,1.67,1,1
35,59,2,1,0,1,5.45,0,4
35,60,2,1,0,1,3.47,0,4
36,1,2,0,1,1,4.63,1,1
36,2,2,0,0,1,2.02,0,3
36,3,2,0,0,0,2.28,1,3
36,4,2,1,1,0,2.31,0,2
36,5,2,0,0,0,2.13,1,3
36,6,2,1,0,1,1.46,0,4
36,7,2,0,0,1,1.77,0,3
36,8,2,1,0,0,3.77,1,4
36,9,2,1,1,0,2.47,0,2
36,10,2,0,0,1,3.67,0,3
36,11,2,1,0,1,3.24,0,4
36,12,2,0,1,0,3.9,0,1
36,13,2,0,1,1,2.92,1,1
36,14,2,0,0,1,2.71,0,3
36,15,2,0,1,1,4.01,1,1
36,16,2,1,1,1,2.85,1,2
36,17,2,0,1,1,4.86,1,1
36,18,2,1,0,1,1.95,0,4
36,19,2,1,0,1,4.46,0,4
36,20,2,0,1,1,2.14,1,1
36,21,2,1,0,1,1.91,0,4
36,22,2,0,1,0,4.25,0,1
36,23,2,1,0,1,2.2,0,4
36,24,2,0,1,1,2.11,1,1
36,25,2,0,1,0,2.78,0,1
36,27,2,0,1,0,1.45,0,1
36,28,2,1,1,0,2.55,0,2
36,29,2,1,0,1,3.7,0,4
36,30,2,1,1,0,2.74,0,2
36,31,2,1,1,1,1.56,1,2
36,32,2,1,1,1,4.38,1,2
36,33,2,1,0,1,2.2,0,4
36,34,2,0,1,1,1.73,1,1
36,35,2,1,1,0,3.46,0,2
36,36,2,0,1,1,2.06,1,1
36,37,2,1,1,1,5.6,1,2
36,38,2,1,1,1,2.07,1,2
36,39,2,1,1,1,2.54,1,2
36,40,2,1,1,0,3.18,0,2
36,41,2,1,1,1,2.18,1,2
36,42,2,1,0,1,2.36,0,4
36,43,2,1,0,1,2.14,0,4
36,44,2,1,0,1,3.85,0,4
36,45,2,0,1,1,1.86,1,1
36,46,2,0,1,1,6.02,1,1
36,47,2,0,0,1,4.15,0,3
36,48,2,1,0,0,1.82,1,4
36,49,2,0,0,1,5.31,0,3
36,50,2,0,0,1,2.19,0,3
36,51,2,1,0,1,5.02,0,4
36,52,2,0,0,1,2.39,0,3
36,53,2,0,0,0,4.09,1,3
36,54,2,1,1,1,3.2,1,2
36,55,2,1,1,1,3.44,1,2
36,56,2,0,1,1,2.42,1,1
36,57,2,1,0,1,3.37,0,4
36,58,2,0,0,1,2.85,0,3
36,59,2,0,0,0,2.37,1,3
36,60,2,0,0,0,3.23,1,3
37,2,2,1,1,1,2.75,1,2
37,3,2,0,1,1,4,1,1
37,4,2,1,0,1,3.89,0,4
37,5,2,1,1,1,2.02,1,2
37,6,2,1,0,1,2.69,0,4
37,7,2,0,0,0,3.05,1,3
37,8,2,0,0,1,3.51,0,3
37,9,2,0,0,1,3.48,0,3
37,10,2,1,1,1,2.38,1,2
37,11,2,1,0,1,3.75,0,4
37,12,2,1,0,0,4.22,1,4
37,13,2,0,1,1,4.3,1,1
37,14,2,0,1,1,3.3,1,1
37,15,2,1,1,1,2.68,1,2
37,16,2,0,0,0,3.46,1,3
37,17,2,1,0,0,4.8,1,4
37,18,2,1,1,1,4.68,1,2
37,19,2,0,0,1,2.93,0,3
37,20,2,1,1,1,2.67,1,2
37,21,2,1,0,1,3.82,0,4
37,22,2,0,0,1,2.87,0,3
37,23,2,0,1,0,4.17,0,1
37,24,2,0,0,1,7.7,0,3
37,25,2,0,0,1,2.8,0,3
37,26,2,0,1,0,2.16,0,1
37,27,2,1,1,1,3.73,1,2
37,28,2,0,1,1,2.96,1,1
37,29,2,1,0,0,4.32,1,4
37,31,2,1,0,0,5.38,1,4
37,32,2,0,0,0,3.9,1,3
37,33,2,1,0,1,5.52,0,4
37,34,2,1,1,1,2.99,1,2
37,35,2,1,1,1,4.7,1,2
37,36,2,0,1,1,4.84,1,1
37,37,2,0,1,0,3.77,0,1
37,38,2,1,1,0,3.76,0,2
37,39,2,0,1,1,5.41,1,1
37,40,2,1,0,1,3.47,0,4
37,41,2,0,0,1,4.2,0,3
37,42,2,1,1,0,3.55,0,2
37,43,2,1,1,1,2.62,1,2
37,44,2,0,0,1,4.92,0,3
37,45,2,0,1,1,5.85,1,1
37,46,2,0,0,1,3.84,0,3
37,47,2,1,1,1,2.83,1,2
37,48,2,1,1,1,3.03,1,2
37,49,2,1,0,1,3.87,0,4
37,50,2,0,0,1,2.65,0,3
37,51,2,0,1,1,6.71,1,1
37,52,2,0,1,1,4.67,1,1
37,53,2,1,0,0,3.94,1,4
37,54,2,0,0,1,2.34,0,3
37,55,2,1,0,1,2.51,0,4
37,56,2,0,1,1,2.64,1,1
37,57,2,1,0,0,2.39,1,4
37,58,2,0,0,1,4.82,0,3
37,59,2,0,1,1,3.69,1,1
37,60,2,0,1,0,2.71,0,1
38,1,2,0,1,0,2.55,0,1
38,2,2,0,1,1,2.57,1,1
38,3,2,0,0,1,2.78,0,3
38,4,2,0,1,1,2.24,1,1
38,5,2,0,1,0,4,0,1
38,6,2,1,0,0,7.01,1,4
38,7,2,1,0,0,4.21,1,4
38,8,2,1,0,0,4.77,1,4
38,9,2,1,1,1,2.6,1,2
38,10,2,1,1,1,5.46,1,2
38,11,2,0,0,0,2.74,1,3
38,12,2,1,0,0,5.86,1,4
38,13,2,1,0,0,3.91,1,4
38,14,2,0,1,0,3.79,0,1
38,15,2,0,1,0,4.06,0,1
38,16,2,1,1,0,4.72,0,2
38,17,2,0,1,1,3.53,1,1
38,18,2,1,0,1,4.99,0,4
38,19,2,1,1,0,2.46,0,2
38,20,2,0,1,0,3.09,0,1
38,21,2,0,1,0,2.78,0,1
38,22,2,0,0,1,4.73,0,3
38,23,2,1,1,1,3.38,1,2
38,24,2,1,0,0,4.47,1,4
38,25,2,0,0,1,2.63,0,3
38,26,2,0,0,1,5.55,0,3
38,27,2,1,0,1,3.63,0,4
38,28,2,0,0,1,5.61,0,3
38,29,2,1,1,0,6.59,0,2
38,30,2,0,1,1,3.51,1,1
38,31,2,1,1,1,3.22,1,2
38,32,2,0,0,0,4.24,1,3
38,33,2,0,1,0,1.91,0,1
38,34,2,1,1,1,2.73,1,2
38,35,2,0,1,1,2.15,1,1
38,36,2,1,1,0,1.91,0,2
38,37,2,1,1,0,3.8,0,2
38,38,2,0,0,1,2.68,0,3
38,39,2,1,0,1,1.97,0,4
38,40,2,0,1,1,7.82,1,1
38,41,2,0,0,0,5.85,1,3
38,43,2,1,0,1,3.45,0,4
38,44,2,0,0,0,2.72,1,3
38,45,2,1,0,0,4.09,1,4
38,46,2,1,1,0,4.92,0,2
38,47,2,1,0,0,1.89,1,4
38,48,2,0,0,0,5.46,1,3
38,49,2,0,0,0,5.23,1,3
38,50,2,0,1,1,5.58,1,1
38,51,2,0,0,0,2.87,1,3
38,52,2,0,0,1,4.84,0,3
38,53,2,1,1,0,2.39,0,2
38,54,2,1,1,1,3.93,1,2
38,55,2,1,1,1,5.05,1,2
38,57,2,1,1,1,8.74,1,2
38,58,2,1,0,1,3.97,0,4
38,59,2,0,1,0,4.47,0,1
38,60,2,1,0,1,5.18,0,4
39,1,2,0,1,1,2.27,1,1
39,2,2,1,1,1,1.53,1,2
39,3,2,0,0,0,2.6,1,3
39,4,2,1,0,1,2.05,0,4
39,5,2,0,0,1,3.07,0,3
39,6,2,1,1,1,2.47,1,2
39,7,2,0,1,1,2.35,1,1
39,8,2,1,1,0,2.98,0,2
39,9,2,0,0,1,3.36,0,3
39,10,2,1,0,0,3.46,1,4
39,11,2,1,0,1,4.52,0,4
39,12,2,1,1,0,3.12,0,2
39,13,2,1,1,1,3.74,1,2
39,14,2,1,0,1,2.92,0,4
39,15,2,0,1,0,4.48,0,1
39,16,2,0,0,1,3.18,0,3
39,17,2,0,0,1,4.13,0,3
39,18,2,0,0,1,2.93,0,3
39,19,2,1,0,1,4.4,0,4
39,20,2,1,0,1,2.52,0,4
39,21,2,1,1,1,6.38,1,2
39,22,2,0,0,1,3.24,0,3
39,23,2,1,0,1,4.33,0,4
39,24,2,1,0,0,4.71,1,4
39,25,2,0,1,0,5.17,0,1
39,26,2,0,1,1,5.47,1,1
39,27,2,0,1,0,2.98,0,1
39,28,2,1,0,1,3.16,0,4
39,29,2,0,0,0,4.75,1,3
39,30,2,1,0,1,3.17,0,4
39,31,2,0,0,0,4.85,1,3
39,32,2,1,1,0,2.75,0,2
39,33,2,1,0,1,2.77,0,4
39,34,2,1,1,1,3.52,1,2
39,35,2,1,1,0,5.8,0,2
39,36,2,0,1,0,3.82,0,1
39,37,2,0,1,1,5.26,1,1
39,38,2,0,1,0,3.93,0,1
39,39,2,1,1,1,6.43,1,2
39,40,2,1,1,0,6.28,0,2
39,41,2,1,1,1,2.88,1,2
39,42,2,0,1,0,3.71,0,1
39,43,2,0,1,1,5.19,1,1
39,44,2,0,0,1,2.86,0,3
39,45,2,1,0,1,3.53,0,4
39,47,2,1,1,1,4.38,1,2
39,48,2,1,1,1,4.57,1,2
39,49,2,1,0,1,2.43,0,4
39,50,2,1,1,0,2.78,0,2
39,51,2,1,0,1,4.77,0,4
39,52,2,0,0,1,2.91,0,3
39,53,2,0,1,0,3.69,0,1
39,54,2,0,0,1,4.91,0,3
39,55,2,1,0,0,4.33,1,4
39,56,2,0,0,1,3.12,0,3
39,57,2,0,0,1,3.19,0,3
39,58,2,0,1,1,4.45,1,1
39,59,2,0,1,1,4.4,1,1
39,60,2,0,1,0,2.75,0,1
40,1,2,1,1,1,3.43,1,2
40,2,2,1,0,1,2.44,0,4
40,3,2,0,1,1,4.33,1,1
40,4,2,0,0,1,3.7,0,3
40,5,2,0,1,1,3.98,1,1
40,6,2,0,0,0,5.5,1,3
40,7,2,1,0,1,3.06,0,4
40,8,2,1,0,1,2.73,0,4
40,9,2,0,1,1,5.53,1,1
40,10,2,0,1,0,4.65,0,1
40,11,2,0,0,1,4.17,0,3
40,12,2,0,0,1,4.57,0,3
40,13,2,1,0,1,3.3,0,4
40,14,2,0,0,1,3.3,0,3
40,15,2,1,0,1,3.27,0,4
40,16,2,0,0,1,4.39,0,3
40,17,2,0,0,0,4.23,1,3
40,18,2,1,0,1,5.24,0,4
40,19,2,0,1,0,6.8,0,1
40,20,2,0,1,1,3.33,1,1
40,21,2,1,0,1,3.77,0,4
40,22,2,1,1,0,5.59,0,2
40,23,2,1,1,1,5.47,1,2
40,24,2,0,1,1,5.5,1,1
40,25,2,1,1,1,3.8,1,2
40,26,2,1,1,0,2.93,0,2
40,27,2,0,1,1,5.6,1,1
40,28,2,0,1,1,3.37,1,1
40,29,2,1,1,1,3.28,1,2
40,30,2,1,1,1,3.1,1,2
40,31,2,0,1,0,5.17,0,1
40,32,2,0,0,1,6.99,0,3
40,33,2,0,1,1,4.09,1,1
40,34,2,1,1,1,2.32,1,2
40,35,2,1,1,0,2.11,0,2
40,36,2,0,1,0,4.89,0,1
40,37,2,1,0,1,4.2,0,4
40,38,2,0,0,1,6.45,0,3
40,39,2,1,0,0,4.38,1,4
40,40,2,0,1,1,5.72,1,1
40,41,2,0,0,0,3.74,1,3
40,42,2,0,1,0,6.57,0,1
40,43,2,1,1,1,3.19,1,2
40,44,2,0,0,0,4.03,1,3
40,45,2,1,1,0,4.39,0,2
40,46,2,1,1,1,3.97,1,2
40,47,2,1,0,1,2.19,0,4
40,48,2,1,0,1,5.53,0,4
40,49,2,1,1,1,6.23,1,2
40,50,2,0,0,1,7.48,0,3
40,51,2,0,1,1,4.34,1,1
40,52,2,1,1,0,4.3,0,2
40,53,2,0,0,0,5.85,1,3
40,54,2,0,0,1,4.2,0,3
40,55,2,0,0,0,2.77,1,3
40,56,2,1,1,0,6.07,0,2
40,57,2,1,0,0,2.12,1,4
40,58,2,1,0,1,6.93,0,4
40,59,2,1,0,1,3.75,0,4
40,60,2,1,0,1,4.16,0,4
41,1,2,1,1,0,2.73,0,2
41,2,2,1,1,1,3.34,1,2
41,3,2,1,0,0,2.37,1,4
41,4,2,1,0,1,2.02,0,4
41,5,2,1,1,1,2.35,1,2
41,6,2,0,0,1,2.28,0,3
41,7,2,0,1,0,3.43,0,1
41,8,2,1,1,1,2.36,1,2
41,9,2,1,1,1,2.88,1,2
41,10,2,0,0,1,2.22,0,3
41,11,2,1,1,0,2.46,0,2
41,12,2,0,0,0,2.64,1,3
41,13,2,0,0,1,2.09,0,3
41,14,2,1,1,1,1.79,1,2
41,15,2,0,0,0,2.74,1,3
41,16,2,0,0,0,2.35,1,3
41,17,2,1,0,1,2.25,0,4
41,18,2,0,0,1,2.32,0,3
41,19,2,0,0,1,2.4,0,3
41,20,2,0,0,1,3.15,0,3
41,21,2,1,0,0,2.46,1,4
41,22,2,1,1,1,2.71,1,2
41,23,2,0,1,1,3.08,1,1
41,24,2,0,1,1,2.45,1,1
41,25,2,1,0,1,2.5,0,4
41,26,2,1,1,1,2.51,1,2
41,27,2,1,0,1,2.83,0,4
41,28,2,0,0,0,3.02,1,3
41,29,2,0,0,1,2.43,0,3
41,30,2,0,1,1,2.62,1,1
41,31,2,1,1,0,3.45,0,2
41,32,2,0,1,1,2.05,1,1
41,33,2,0,1,1,2.95,1,1
41,34,2,1,0,1,3.08,0,4
41,35,2,0,1,0,3.76,0,1
41,36,2,1,0,1,2.1,0,4
41,37,2,0,0,0,2.72,1,3
41,38,2,1,1,1,1.82,1,2
41,39,2,1,0,0,2.74,1,4
41,40,2,1,0,1,2.52,0,4
41,41,2,1,0,1,2.89,0,4
41,42,2,0,1,0,2.72,0,1
41,43,2,1,1,0,2.42,0,2
41,44,2,1,0,1,2.12,0,4
41,45,2,0,1,0,2.21,0,1
41,46,2,1,1,1,3.26,1,2
41,47,2,0,1,0,3.05,0,1
41,48,2,1,0,0,3.85,1,4
41,49,2,0,1,0,3.39,0,1
41,50,2,0,1,1,2.8,1,1
41,51,2,1,0,1,2.72,0,4
41,52,2,1,0,0,3.2,1,4
41,54,2,1,1,1,3.09,1,2
41,55,2,0,1,1,2.62,1,1
41,56,2,1,1,1,2.05,1,2
41,57,2,0,0,0,2.58,1,3
41,58,2,0,1,1,3.75,1,1
41,59,2,0,0,1,3.73,0,3
41,60,2,0,0,0,3.52,1,3
42,1,2,1,1,0,3.97,0,2
42,2,2,0,1,1,2.99,1,1
42,3,2,0,1,0,3.62,0,1
42,4,2,0,1,1,3.38,1,1
42,5,2,1,0,0,3.09,1,4
42,6,2,1,0,1,3.64,0,4
42,7,2,1,1,0,2.57,0,2
42,8,2,1,0,1,2.62,0,4
42,9,2,1,1,1,3.58,1,2
42,10,2,1,1,0,2.88,0,2
42,11,2,1,0,0,2.25,1,4
42,12,2,1,0,0,3.1,1,4
42,13,2,1,0,0,2.67,1,4
42,14,2,0,1,1,2.31,1,1
42,15,2,0,1,1,4.3,1,1
42,16,2,0,0,1,3.65,0,3
42,17,2,0,0,0,3.42,1,3
42,18,2,1,0,1,3.3,0,4
42,19,2,1,1,0,3.95,0,2
42,20,2,1,1,0,3.05,0,2
42,21,2,1,0,1,2.45,0,4
42,22,2,1,0,1,3.99,0,4
42,23,2,0,1,1,3.75,1,1
42,24,2,0,0,1,3.4,0,3
42,25,2,0,0,0,3.16,1,3
42,26,2,1,1,0,3.8,0,2
42,27,2,1,1,0,3.31,0,2
42,28,2,1,0,0,3.14,1,4
42,29,2,0,0,1,2.86,0,3
42,30,2,0,0,1,3.19,0,3
42,31,2,0,1,0,3.31,0,1
42,32,2,1,1,0,3.56,0,2
42,33,2,0,0,0,5.8,1,3
42,34,2,0,0,0,3.1,1,3
42,36,2,0,1,1,4.52,1,1
42,37,2,1,1,1,2.54,1,2
42,38,2,0,1,1,4.95,1,1
42,39,2,0,1,0,5.23,0,1
42,40,2,1,1,0,4.98,0,2
42,41,2,0,0,0,5.59,1,3
42,42,2,0,1,0,3.13,0,1
42,43,2,0,1,0,2.94,0,1
42,44,2,0,0,0,2.9,1,3
42,45,2,1,0,1,2.35,0,4
42,46,2,0,0,0,2.08,1,3
42,47,2,1,1,0,2.51,0,2
42,48,2,1,1,0,3.26,0,2
42,49,2,1,1,0,3.58,0,2
42,50,2,0,0,1,3.02,0,3
42,51,2,0,1,1,4.5,1,1
42,52,2,1,1,1,2.6,1,2
42,53,2,0,1,0,3.64,0,1
42,54,2,0,0,0,4.14,1,3
42,55,2,0,1,1,4.72,1,1
42,56,2,1,0,1,3.17,0,4
42,57,2,0,0,0,3.61,1,3
42,58,2,1,0,0,4.26,1,4
42,59,2,1,0,1,3.16,0,4
42,60,2,1,0,1,3.79,0,4
43,1,2,0,0,1,6.47,0,3
43,2,2,1,0,0,7.33,1,4
43,3,2,1,0,0,8.89,1,4
43,4,2,0,1,0,6.76,0,1
43,5,2,1,1,1,6.5,1,2
43,6,2,1,0,0,9.78,1,4
43,7,2,0,1,0,5.47,0,1
43,8,2,0,1,0,4.86,0,1
43,11,2,0,0,1,5.8,0,3
43,13,2,0,0,0,6.85,1,3
43,14,2,0,1,0,4.9,0,1
43,15,2,1,1,0,5.7,0,2
43,16,2,1,1,0,7.35,0,2
43,17,2,1,1,0,5.84,0,2
43,18,2,1,0,1,8.33,0,4
43,19,2,0,0,1,6.35,0,3
43,21,2,1,0,0,7.28,1,4
43,22,2,1,1,0,3.56,0,2
43,23,2,1,1,0,4.22,0,2
43,24,2,1,0,0,4.07,1,4
43,25,2,0,0,1,7.74,0,3
43,27,2,1,0,0,4.92,1,4
43,28,2,0,1,0,5.07,0,1
43,29,2,1,1,1,7.15,1,2
43,30,2,1,1,0,5.59,0,2
43,32,2,1,0,1,6.01,0,4
43,33,2,0,0,0,7.74,1,3
43,34,2,1,0,1,8.97,0,4
43,35,2,1,0,1,6.06,0,4
43,36,2,0,0,0,4.62,1,3
43,37,2,1,0,0,5.71,1,4
43,39,2,1,1,0,3.41,0,2
43,40,2,0,0,1,6.51,0,3
43,41,2,0,1,0,9.33,0,1
43,42,2,0,1,1,5.93,1,1
43,43,2,1,1,0,7.15,0,2
43,44,2,0,1,0,5.85,0,1
43,45,2,0,0,1,8.41,0,3
43,46,2,0,0,1,6.8,0,3
43,47,2,1,1,1,6.78,1,2
43,49,2,1,1,0,7.81,0,2
43,52,2,0,1,0,4.64,0,1
43,53,2,0,1,0,7.39,0,1
43,55,2,0,0,0,3.85,1,3
43,56,2,0,0,0,6.7,1,3
43,59,2,1,1,1,7.56,1,2
43,60,2,0,1,1,5.37,1,1
44,1,2,0,1,0,5.26,0,1
44,2,2,1,0,1,3.27,0,4
44,3,2,0,1,0,5.75,0,1
44,4,2,0,0,1,6.01,0,3
44,5,2,0,0,1,3.8,0,3
44,6,2,1,0,1,7.11,0,4
44,7,2,0,0,1,5.92,0,3
44,8,2,1,0,1,7.3,0,4
44,9,2,0,0,1,5.27,0,3
44,10,2,1,1,1,3.55,1,2
44,11,2,1,1,1,5.52,1,2
44,12,2,0,0,1,4.05,0,3
44,13,2,0,0,0,6.13,1,3
44,14,2,1,0,1,4.46,0,4
44,15,2,0,1,0,6.14,0,1
44,16,2,1,1,1,4.73,1,2
44,17,2,0,0,0,7.51,1,3
44,18,2,0,1,1,8.96,1,1
44,19,2,1,0,1,6.52,0,4
44,20,2,0,0,0,3.81,1,3
44,21,2,0,1,1,4.4,1,1
44,22,2,1,1,1,6.32,1,2
44,23,2,0,1,1,4.1,1,1
44,24,2,1,0,1,7.87,0,4
44,25,2,1,1,0,5.77,0,2
44,26,2,0,1,0,4.04,0,1
44,28,2,1,0,1,3.69,0,4
44,29,2,1,0,1,3.57,0,4
44,30,2,1,1,0,7.43,0,2
44,31,2,0,0,1,5.22,0,3
44,32,2,1,0,0,4.7,1,4
44,33,2,0,1,0,6.52,0,1
44,34,2,1,1,1,5.27,1,2
44,35,2,1,1,0,4.32,0,2
44,36,2,0,1,1,3.96,1,1
44,37,2,1,1,1,4.75,1,2
44,38,2,1,1,1,4.71,1,2
44,39,2,1,0,1,3.32,0,4
44,40,2,1,0,1,3.15,0,4
44,41,2,1,0,1,4.77,0,4
44,42,2,0,0,0,7.29,1,3
44,43,2,0,1,1,4.76,1,1
44,44,2,0,1,1,3.4,1,1
44,45,2,1,1,1,4.02,1,2
44,46,2,0,1,1,7.8,1,1
44,48,2,1,0,0,5.41,1,4
44,49,2,1,0,1,4.27,0,4
44,50,2,0,1,0,4.31,0,1
44,51,2,0,0,0,5.28,1,3
44,52,2,1,0,1,5.44,0,4
44,53,2,1,1,0,5.4,0,2
44,54,2,1,1,1,4.29,1,2
44,55,2,1,1,1,3.8,1,2
44,56,2,1,1,1,4.51,1,2
44,57,2,0,1,1,6.22,1,1
44,58,2,0,0,1,4.21,0,3
44,59,2,0,0,1,3.15,0,3
44,60,2,0,1,1,5.62,1,1
45,1,2,0,0,0,2.35,1,3
45,2,2,1,0,0,3.52,1,4
45,3,2,0,1,1,2.03,1,1
45,4,2,0,1,0,3.98,0,1
45,5,2,1,0,0,3.9,1,4
45,6,2,0,0,0,2.49,1,3
45,7,2,1,1,0,5.42,0,2
45,8,2,0,1,1,4.01,1,1
45,9,2,0,0,1,2.97,0,3
45,10,2,0,1,1,2.99,1,1
45,11,2,0,0,1,3.72,0,3
45,12,2,1,0,1,4.02,0,4
45,13,2,1,0,0,3.7,1,4
45,14,2,0,1,0,2.49,0,1
45,15,2,0,0,0,2.77,1,3
45,16,2,0,0,1,6.05,0,3
45,17,2,1,1,1,2.74,1,2
45,18,2,0,1,0,4.08,0,1
45,19,2,0,1,0,2.6,0,1
45,20,2,0,1,1,5.87,1,1
45,21,2,1,0,0,7.06,1,4
45,22,2,1,1,0,6,0,2
45,23,2,0,1,1,4.92,1,1
45,24,2,1,1,1,5.28,1,2
45,25,2,0,0,0,4.62,1,3
45,26,2,0,1,0,5.45,0,1
45,27,2,0,1,0,5.48,0,1
45,28,2,1,0,0,3.95,1,4
45,29,2,0,1,1,3.12,1,1
45,30,2,0,0,1,2.83,0,3
45,31,2,1,1,1,4.32,1,2
45,32,2,1,1,1,3.43,1,2
45,33,2,0,0,1,3.63,0,3
45,34,2,0,0,0,2.62,1,3
45,35,2,0,0,0,1.8,1,3
45,36,2,1,1,1,5.11,1,2
45,37,2,1,1,0,5.37,0,2
45,38,2,1,0,1,2.53,0,4
45,39,2,1,1,1,6.22,1,2
45,40,2,1,1,1,3.15,1,2
45,41,2,1,0,1,6.97,0,4
45,42,2,1,1,1,2.28,1,2
45,43,2,1,1,1,1.96,1,2
45,44,2,0,0,1,2.31,0,3
45,45,2,1,1,1,4.26,1,2
45,46,2,1,0,1,3.43,0,4
45,47,2,1,0,1,2.87,0,4
45,48,2,1,0,1,7.38,0,4
45,49,2,1,0,0,6.1,1,4
45,50,2,1,0,1,2.47,0,4
45,51,2,1,1,1,4.05,1,2
45,52,2,0,0,0,3,1,3
45,53,2,0,1,1,3.5,1,1
45,54,2,0,0,0,4.49,1,3
45,55,2,1,0,1,2.75,0,4
45,56,2,0,0,0,6.15,1,3
45,57,2,0,1,1,4.59,1,1
45,59,2,0,1,0,4.83,0,1
45,60,2,1,1,0,7.42,0,2
46,2,2,1,1,1,1.86,1,2
46,3,2,0,0,1,2.03,0,3
46,4,2,0,1,0,1.54,0,1
46,5,2,1,1,1,1.5,1,2
46,6,2,1,1,0,1.73,0,2
46,7,2,1,0,0,2.21,1,4
46,8,2,0,1,1,2.47,1,1
46,9,2,0,0,1,2.78,0,3
46,10,2,1,0,1,2.74,0,4
46,11,2,0,1,0,1.93,0,1
46,12,2,1,1,1,2.37,1,2
46,13,2,0,0,0,3.08,1,3
46,14,2,0,1,1,2.4,1,1
46,15,2,1,1,1,2.29,1,2
46,16,2,1,0,1,5.07,0,4
46,17,2,0,1,1,4.36,1,1
46,18,2,1,1,0,1.64,0,2
46,19,2,1,1,1,1.55,1,2
46,20,2,0,0,1,2,0,3
46,21,2,1,1,0,1.15,0,2
46,22,2,1,1,1,1.91,1,2
46,23,2,1,0,1,1.35,0,4
46,24,2,0,0,0,2.5,1,3
46,25,2,1,1,1,1.75,1,2
46,26,2,0,0,0,3.11,1,3
46,27,2,1,1,1,2.31,1,2
46,28,2,0,1,0,3.78,0,1
46,29,2,0,1,0,2.32,0,1
46,30,2,0,0,0,2.25,1,3
46,31,2,1,1,0,3.23,0,2
46,32,2,0,1,0,3.23,0,1
46,33,2,0,1,1,3.04,1,1
46,34,2,0,1,0,4.2,0,1
46,35,2,0,0,0,2.94,1,3
46,36,2,0,0,0,1.78,1,3
46,37,2,1,0,0,3.15,1,4
46,38,2,0,0,0,3.84,1,3
46,39,2,0,0,0,2.15,1,3
46,40,2,1,1,1,2.17,1,2
46,41,2,0,1,0,1.67,0,1
46,42,2,1,0,1,3,0,4
46,43,2,1,0,1,1.78,0,4
46,44,2,1,0,0,3.23,1,4
46,46,2,0,1,0,2.52,0,1
46,47,2,0,0,0,2.53,1,3
46,48,2,1,0,1,2.08,0,4
46,49,2,0,0,1,2.17,0,3
46,50,2,1,0,0,3,1,4
46,51,2,0,1,0,3.07,0,1
46,52,2,0,0,0,1.92,1,3
46,53,2,0,0,1,2.94,0,3
46,54,2,1,0,1,2.73,0,4
46,55,2,1,1,1,2.43,1,2
46,56,2,1,0,0,2.93,1,4
46,57,2,1,0,1,2.48,0,4
46,58,2,1,0,0,2.79,1,4
46,59,2,1,0,0,3.06,1,4
46,60,2,1,1,1,2.21,1,2
47,1,2,0,0,0,4.12,1,3
47,2,2,1,0,1,7.71,0,4
47,3,2,0,1,0,4.27,0,1
47,4,2,0,0,1,7.07,0,3
47,5,2,1,0,0,4.77,1,4
47,6,2,1,0,0,4.49,1,4
47,7,2,1,0,1,3.75,0,4
47,8,2,0,1,0,7.1,0,1
47,9,2,1,1,0,5.78,0,2
47,10,2,1,1,1,4.76,1,2
47,11,2,1,0,1,3.05,0,4
47,12,2,0,1,0,6.58,0,1
47,13,2,0,0,1,5.68,0,3
47,14,2,0,0,1,7.13,0,3
47,15,2,1,1,1,3.6,1,2
47,16,2,1,1,1,4.61,1,2
47,17,2,0,1,1,8.1,1,1
47,18,2,1,1,1,7.44,1,2
47,19,2,0,0,1,3.33,0,3
47,20,2,1,0,0,4.53,1,4
47,21,2,0,1,1,5.31,1,1
47,22,2,1,0,1,3.6,0,4
47,23,2,0,1,0,8.03,0,1
47,24,2,1,1,0,4.77,0,2
47,25,2,1,1,1,4.75,1,2
47,26,2,1,1,1,2.99,1,2
47,27,2,0,0,1,3.15,0,3
47,29,2,1,1,1,4.57,1,2
47,30,2,1,1,1,7.02,1,2
47,31,2,0,1,1,3.34,1,1
47,32,2,0,1,1,7.6,1,1
47,33,2,1,1,0,5.95,0,2
47,34,2,1,0,1,2.94,0,4
47,35,2,0,0,0,4.44,1,3
47,36,2,1,0,0,5.12,1,4
47,37,2,0,0,1,6.23,0,3
47,38,2,1,1,1,5.16,1,2
47,39,2,1,1,1,4.14,1,2
47,40,2,1,0,1,2.29,0,4
47,41,2,1,0,1,4.07,0,4
47,42,2,0,1,0,5.13,0,1
47,43,2,1,1,1,4.65,1,2
47,44,2,1,1,1,2.45,1,2
47,45,2,0,0,1,3.77,0,3
47,46,2,0,1,1,3.76,1,1
47,47,2,0,0,1,4.1,0,3
47,48,2,0,0,1,4.33,0,3
47,49,2,0,0,1,3.09,0,3
47,50,2,0,1,0,6.21,0,1
47,51,2,0,1,0,4.89,0,1
47,52,2,1,0,1,4.39,0,4
47,53,2,0,0,1,3.4,0,3
47,54,2,1,0,1,6.07,0,4
47,55,2,0,1,1,4.38,1,1
47,56,2,1,0,1,4.67,0,4
47,57,2,0,0,1,3.15,0,3
47,58,2,0,1,1,7.62,1,1
47,59,2,0,0,1,3.78,0,3
47,60,2,0,1,1,2.83,1,1
48,1,2,0,0,0,1.88,1,3
48,2,2,0,1,0,3.01,0,1
48,3,2,0,0,1,3.22,0,3
48,4,2,1,0,0,3.98,1,4
48,5,2,0,1,0,2.48,0,1
48,6,2,0,1,0,3.61,0,1
48,7,2,0,0,1,3.32,0,3
48,8,2,1,1,0,3.01,0,2
48,9,2,0,1,0,3.07,0,1
48,11,2,0,0,0,3.2,1,3
48,12,2,1,1,0,3.43,0,2
48,13,2,0,1,1,3.62,1,1
48,14,2,0,0,0,3.86,1,3
48,15,2,0,1,0,5.03,0,1
48,16,2,0,0,1,3.7,0,3
48,17,2,0,1,0,9.27,0,1
48,18,2,0,1,0,2.8,0,1
48,19,2,1,0,0,3.3,1,4
48,20,2,1,0,0,4.32,1,4
48,21,2,0,0,1,2.59,0,3
48,22,2,0,1,0,4.67,0,1
48,23,2,0,0,1,2.59,0,3
48,24,2,0,1,1,2.93,1,1
48,25,2,1,0,1,5.37,0,4
48,26,2,1,0,1,2.88,0,4
48,28,2,1,0,1,5.03,0,4
48,29,2,0,0,1,3.37,0,3
48,30,2,0,1,0,4.13,0,1
48,31,2,1,1,1,3.47,1,2
48,32,2,0,1,0,2.34,0,1
48,33,2,1,1,1,2.74,1,2
48,34,2,0,1,1,3.16,1,1
48,35,2,0,1,1,4.7,1,1
48,36,2,1,0,1,5.08,0,4
48,37,2,1,1,1,3.24,1,2
48,38,2,1,0,0,3.95,1,4
48,39,2,1,1,1,6.44,1,2
48,40,2,1,1,0,3.24,0,2
48,41,2,0,0,1,5.81,0,3
48,42,2,1,1,1,5.28,1,2
48,43,2,1,1,1,4.03,1,2
48,44,2,1,1,1,5.59,1,2
48,45,2,1,0,0,4.57,1,4
48,46,2,1,1,0,3.43,0,2
48,47,2,1,0,0,6.94,1,4
48,48,2,1,0,1,6.13,0,4
48,49,2,0,0,0,6.18,1,3
48,50,2,0,0,1,5.02,0,3
48,51,2,1,1,1,4.68,1,2
48,52,2,1,0,0,3.3,1,4
48,53,2,0,0,1,3.28,0,3
48,54,2,1,0,1,3.49,0,4
48,55,2,0,1,0,4.87,0,1
48,56,2,1,0,0,5.28,1,4
48,57,2,1,1,0,4.31,0,2
48,58,2,1,0,1,3.35,0,4
48,59,2,1,1,0,5.28,0,2
48,60,2,0,0,1,3.77,0,3
49,1,2,1,1,0,4.09,0,2
49,2,2,1,1,1,2.6,1,2
49,3,2,1,0,1,4.21,0,4
49,4,2,1,0,1,4.12,0,4
49,5,2,1,0,1,3.29,0,4
49,6,2,0,1,0,2.77,0,1
49,7,2,0,0,1,2.42,0,3
49,8,2,1,1,1,3.29,1,2
49,9,2,1,0,0,3.77,1,4
49,10,2,0,0,0,2.42,1,3
49,11,2,0,1,1,2.89,1,1
49,12,2,1,1,0,2.7,0,2
49,13,2,0,0,0,3.09,1,3
49,14,2,1,0,0,3.6,1,4
49,15,2,0,1,1,2.42,1,1
49,16,2,1,1,1,5.19,1,2
49,17,2,0,0,0,5.1,1,3
49,18,2,0,0,1,2.55,0,3
49,19,2,0,1,1,2.7,1,1
49,20,2,1,1,1,3.39,1,2
49,21,2,1,1,1,3.15,1,2
49,22,2,0,0,1,4.47,0,3
49,23,2,1,1,0,4.77,0,2
49,24,2,1,1,0,3.08,0,2
49,25,2,0,0,1,4.88,0,3
49,26,2,0,1,1,4.29,1,1
49,27,2,1,0,1,2.55,0,4
49,28,2,1,0,0,2.65,1,4
49,29,2,1,0,1,3.84,0,4
49,30,2,1,0,1,4.64,0,4
49,31,2,1,1,1,2.47,1,2
49,32,2,0,1,1,3.25,1,1
49,33,2,0,0,0,3.31,1,3
49,34,2,0,1,0,3.4,0,1
49,35,2,0,1,1,3.74,1,1
49,36,2,0,1,0,2.49,0,1
49,37,2,1,1,1,2.27,1,2
49,38,2,0,0,0,2.66,1,3
49,39,2,0,1,0,2.79,0,1
49,40,2,1,0,0,2.05,1,4
49,41,2,1,0,1,2.5,0,4
49,42,2,0,1,0,5.37,0,1
49,43,2,1,0,1,2.33,0,4
49,44,2,0,0,0,2.26,1,3
49,45,2,1,1,0,2.64,0,2
49,46,2,1,1,1,4.88,1,2
49,47,2,0,0,1,5.05,0,3
49,48,2,1,0,1,3.62,0,4
49,51,2,1,1,1,3.05,1,2
49,52,2,0,0,0,3.88,1,3
49,53,2,1,1,1,4.12,1,2
49,54,2,0,0,1,4.17,0,3
49,55,2,0,1,1,1.99,1,1
49,56,2,0,0,1,2.78,0,3
49,57,2,1,0,0,2.19,1,4
49,58,2,0,1,0,6.22,0,1
49,59,2,1,0,1,2.28,0,4
49,60,2,0,1,0,2.3,0,1
50,1,2,0,0,1,2.39,0,3
50,2,2,0,1,0,2.61,0,1
50,3,2,0,0,0,3.47,1,3
50,4,2,1,0,0,3.51,1,4
50,5,2,1,0,0,2.87,1,4
50,6,2,0,1,1,4.93,1,1
50,7,2,1,1,1,2.18,1,2
50,8,2,1,0,1,2.29,0,4
50,9,2,0,1,0,3.45,0,1
50,10,2,0,0,0,4.92,1,3
50,11,2,1,1,1,3.58,1,2
50,12,2,1,1,0,1.94,0,2
50,13,2,0,0,1,3.24,0,3
50,14,2,0,0,1,2.84,0,3
50,15,2,0,0,1,1.89,0,3
50,16,2,1,0,1,3.3,0,4
50,17,2,1,1,0,5.13,0,2
50,18,2,1,0,1,2.8,0,4
50,19,2,1,1,1,2.47,1,2
50,20,2,0,0,0,1.59,1,3
50,21,2,1,1,0,3.5,0,2
50,22,2,1,0,0,3.78,1,4
50,23,2,1,0,1,1.68,0,4
50,24,2,1,1,1,2.98,1,2
50,25,2,0,1,0,2.69,0,1
50,26,2,1,1,1,1.67,1,2
50,27,2,0,0,0,3.08,1,3
50,28,2,0,1,0,2.42,0,1
50,29,2,1,0,0,2.74,1,4
50,30,2,1,1,1,3.23,1,2
50,31,2,0,1,0,3.85,0,1
50,32,2,0,1,1,2.17,1,1
50,33,2,1,1,1,2.6,1,2
50,34,2,0,0,0,2.7,1,3
50,35,2,1,1,1,2.15,1,2
50,36,2,0,0,1,3.74,0,3
50,37,2,1,0,0,2.85,1,4
50,38,2,1,0,1,2.83,0,4
50,39,2,1,1,1,3.11,1,2
50,40,2,1,1,0,3.05,0,2
50,41,2,0,1,1,3.92,1,1
50,42,2,1,0,1,2.83,0,4
50,43,2,0,0,1,3.95,0,3
50,44,2,0,1,1,2.36,1,1
50,45,2,1,0,0,3.72,1,4
50,46,2,0,0,1,2.01,0,3
50,47,2,0,1,0,1.6,0,1
50,48,2,0,0,1,2.2,0,3
50,49,2,1,0,1,1.31,0,4
50,50,2,0,1,0,2.47,0,1
50,51,2,1,1,0,3.55,0,2
50,52,2,0,1,1,2.41,1,1
50,54,2,0,1,0,3.45,0,1
50,55,2,0,1,1,2.7,1,1
50,56,2,0,0,1,2.35,0,3
50,57,2,0,0,0,5.02,1,3
50,58,2,1,0,1,3.83,0,4
50,59,2,1,0,1,1.46,0,4
50,60,2,1,1,1,4.73,1,2
51,1,2,1,0,0,1.93,1,4
51,2,2,1,1,0,2.18,0,2
51,3,2,1,1,1,3.59,1,2
51,4,2,1,1,1,2.75,1,2
51,5,2,0,0,0,3.32,1,3
51,6,2,1,1,1,1.63,1,2
51,7,2,1,0,1,2.63,0,4
51,8,2,1,0,1,2,0,4
51,9,2,0,1,0,2.28,0,1
51,10,2,1,1,1,2.25,1,2
51,11,2,1,1,0,2.75,0,2
51,12,2,0,1,0,2.51,0,1
51,13,2,0,0,1,2.28,0,3
51,14,2,0,0,0,2.76,1,3
51,15,2,1,1,1,2.12,1,2
51,16,2,1,1,1,2.37,1,2
51,17,2,0,1,0,2.18,0,1
51,18,2,0,0,1,2.56,0,3
51,19,2,1,0,1,3.96,0,4
51,20,2,0,0,0,2.35,1,3
51,21,2,1,0,1,1.94,0,4
51,22,2,0,0,1,2.67,0,3
51,23,2,0,0,1,3.8,0,3
51,24,2,1,0,0,2.98,1,4
51,25,2,1,0,0,3.38,1,4
51,26,2,1,1,0,2.05,0,2
51,27,2,0,1,1,3.3,1,1
51,28,2,0,1,1,2.05,1,1
51,29,2,0,1,0,2.85,0,1
51,30,2,0,1,0,2.51,0,1
51,31,2,0,1,0,3.24,0,1
51,32,2,0,1,0,2.61,0,1
51,34,2,0,0,1,2.38,0,3
51,35,2,1,1,1,2.19,1,2
51,36,2,1,0,1,2.22,0,4
51,37,2,0,1,0,2.49,0,1
51,38,2,1,1,1,1.77,1,2
51,39,2,1,1,1,3.88,1,2
51,40,2,0,0,0,2.37,1,3
51,41,2,0,0,0,3.07,1,3
51,42,2,1,1,0,1.82,0,2
51,43,2,0,0,1,2.17,0,3
51,44,2,1,0,1,2.32,0,4
51,45,2,1,0,1,1.84,0,4
51,46,2,1,0,0,1.83,1,4
51,47,2,1,0,1,1.92,0,4
51,48,2,0,1,0,2.89,0,1
51,49,2,1,0,0,2.63,1,4
51,50,2,1,1,1,1.91,1,2
51,51,2,0,1,0,2.16,0,1
51,52,2,0,0,1,1.58,0,3
51,53,2,0,0,1,1.97,0,3
51,54,2,0,1,0,2.63,0,1
51,55,2,1,0,1,2.13,0,4
51,56,2,0,0,1,2.9,0,3
51,57,2,0,0,0,3.09,1,3
51,58,2,1,0,1,1.78,0,4
51,59,2,1,1,1,1.58,1,2
51,60,2,0,1,0,2.02,0,1
52,1,2,0,0,0,5.2,1,3
52,2,2,1,1,1,8.53,1,2
52,3,2,0,0,1,3.88,0,3
52,4,2,0,1,0,4.97,0,1
52,5,2,0,0,1,4.38,0,3
52,6,2,0,0,1,4.54,0,3
52,7,2,1,0,1,7.89,0,4
52,8,2,1,0,1,4.1,0,4
52,9,2,0,0,1,5.6,0,3
52,10,2,0,1,0,3.03,0,1
52,11,2,1,1,0,7.57,0,2
52,12,2,1,1,1,7.39,1,2
52,13,2,0,1,1,3.97,1,1
52,14,2,1,1,1,5.65,1,2
52,15,2,0,1,1,7.55,1,1
52,16,2,0,0,1,5.83,0,3
52,17,2,0,1,1,6.42,1,1
52,18,2,0,0,1,4.53,0,3
52,19,2,0,1,0,6.43,0,1
52,20,2,0,1,0,4.85,0,1
52,21,2,1,0,1,5.31,0,4
52,22,2,1,1,0,6.74,0,2
52,23,2,0,0,0,5.01,1,3
52,24,2,1,0,0,6.44,1,4
52,25,2,1,1,1,3.95,1,2
52,26,2,0,0,1,3.42,0,3
52,27,2,0,0,1,4.01,0,3
52,28,2,1,1,0,3.93,0,2
52,29,2,1,0,1,5.53,0,4
52,30,2,0,0,1,5.08,0,3
52,31,2,1,0,0,4.86,1,4
52,32,2,1,1,1,6.37,1,2
52,33,2,0,1,1,8.26,1,1
52,34,2,1,1,0,3.9,0,2
52,35,2,1,0,1,3.84,0,4
52,36,2,0,1,0,5.15,0,1
52,39,2,0,1,1,4.01,1,1
52,40,2,0,1,1,7.7,1,1
52,41,2,1,0,1,3.32,0,4
52,42,2,0,1,1,3.27,1,1
52,43,2,1,0,1,5.27,0,4
52,44,2,0,0,1,6.11,0,3
52,45,2,1,1,0,3.85,0,2
52,46,2,1,1,0,5.92,0,2
52,47,2,1,0,0,6.06,1,4
52,48,2,0,0,0,6.66,1,3
52,49,2,1,0,0,8.23,1,4
52,50,2,1,0,1,4.49,0,4
52,51,2,0,0,0,6.12,1,3
52,52,2,1,1,1,5.08,1,2
52,53,2,0,1,0,5.84,0,1
52,54,2,1,0,1,5.24,0,4
52,55,2,1,1,0,7.57,0,2
52,56,2,0,1,0,7.57,0,1
52,57,2,1,1,1,4.42,1,2
52,58,2,0,0,1,7.21,0,3
52,59,2,0,1,1,3.54,1,1
52,60,2,1,1,0,7.13,0,2
53,1,2,1,0,1,4.68,0,4
53,2,2,0,0,1,3.07,0,3
53,3,2,1,0,0,7.61,1,4
53,4,2,0,1,0,4.65,0,1
53,5,2,1,1,0,4.06,0,2
53,6,2,0,1,1,4.85,1,1
53,7,2,1,1,0,7.1,0,2
53,8,2,1,1,1,3.77,1,2
53,9,2,0,0,0,3.45,1,3
53,10,2,1,1,1,4,1,2
53,11,2,0,0,0,5.73,1,3
53,12,2,1,0,0,7.23,1,4
53,13,2,0,0,1,4.77,0,3
53,14,2,0,0,1,4.76,0,3
53,15,2,1,1,0,7.93,0,2
53,16,2,1,0,0,3.92,1,4
53,17,2,0,0,0,5.88,1,3
53,18,2,1,1,1,7.8,1,2
53,19,2,0,0,1,5,0,3
53,21,2,0,1,1,6.86,1,1
53,23,2,1,0,0,4.76,1,4
53,24,2,0,0,0,3.38,1,3
53,25,2,0,1,0,3.22,0,1
53,26,2,1,1,1,4.89,1,2
53,27,2,1,1,1,3.37,1,2
53,28,2,1,0,0,7.2,1,4
53,29,2,0,1,1,3.35,1,1
53,30,2,0,0,0,5.02,1,3
53,31,2,1,1,1,3.22,1,2
53,32,2,1,0,1,3.8,0,4
53,33,2,1,0,1,3.08,0,4
53,34,2,0,1,1,5.8,1,1
53,35,2,1,1,1,3.74,1,2
53,36,2,1,0,1,2.88,0,4
53,37,2,1,0,1,7.53,0,4
53,38,2,0,1,0,7.66,0,1
53,39,2,0,0,0,5.89,1,3
53,40,2,0,1,1,4.92,1,1
53,41,2,0,1,1,5.08,1,1
53,42,2,1,1,1,2.75,1,2
53,43,2,1,0,1,8.45,0,4
53,44,2,0,1,0,4.88,0,1
53,45,2,0,0,1,3.06,0,3
53,46,2,0,1,0,6.76,0,1
53,47,2,1,1,1,5.97,1,2
53,48,2,0,1,0,7.39,0,1
53,49,2,1,0,1,2.85,0,4
53,50,2,1,0,1,3.05,0,4
53,51,2,0,1,1,7.44,1,1
53,52,2,1,1,1,2.35,1,2
53,53,2,0,0,1,5.32,0,3
53,54,2,0,0,0,4.55,1,3
53,55,2,0,1,1,5.8,1,1
53,56,2,1,0,1,8.18,0,4
53,57,2,0,0,1,4.58,0,3
53,58,2,1,0,1,2.55,0,4
53,59,2,0,0,1,3.24,0,3
53,60,2,1,1,1,6.46,1,2
54,1,2,0,0,1,8.47,0,3
54,2,2,0,0,1,6.42,0,3
54,3,2,0,0,0,6.82,1,3
54,4,2,0,1,0,8.7,0,1
54,5,2,0,1,0,8.57,0,1
54,6,2,0,1,1,9.74,1,1
54,7,2,0,1,1,5.07,1,1
54,9,2,0,0,0,8.67,1,3
54,10,2,1,0,0,6,1,4
54,12,2,0,1,0,4.85,0,1
54,13,2,1,0,0,9.58,1,4
54,14,2,0,0,1,7.37,0,3
54,16,2,0,1,1,8.75,1,1
54,17,2,0,1,0,9.8,0,1
54,18,2,1,1,1,9.3,1,2
54,19,2,1,1,0,9.1,0,2
54,20,2,0,1,0,7.65,0,1
54,22,2,0,0,0,6.08,1,3
54,24,2,0,0,0,7.47,1,3
54,25,2,1,1,0,7.48,0,2
54,26,2,1,0,1,6.23,0,4
54,28,2,0,1,0,7.75,0,1
54,29,2,1,1,0,8.53,0,2
54,30,2,1,0,1,7.15,0,4
54,32,2,0,1,1,9.45,1,1
54,33,2,1,1,0,5.64,0,2
54,34,2,1,1,1,4.87,1,2
54,36,2,1,1,0,6.19,0,2
54,37,2,0,1,0,9.74,0,1
54,38,2,0,1,1,8.16,1,1
54,39,2,1,0,1,7.24,0,4
54,40,2,0,0,0,9.19,1,3
54,42,2,1,1,0,8.36,0,2
54,43,2,1,0,0,5.14,1,4
54,44,2,0,0,1,4.7,0,3
54,46,2,0,0,0,6.52,1,3
54,47,2,1,1,0,8.58,0,2
54,49,2,1,1,0,9.61,0,2
54,50,2,1,0,0,4.65,1,4
54,51,2,1,1,1,6.3,1,2
54,52,2,0,1,1,8.78,1,1
54,53,2,1,1,0,7.58,0,2
54,55,2,1,0,0,9.02,1,4
54,58,2,1,0,0,8.18,1,4
54,59,2,0,0,1,7.67,0,3
54,60,2,1,1,1,7.1,1,2
55,1,2,1,0,0,3.22,1,4
55,2,2,0,1,0,3.3,0,1
55,3,2,0,1,0,4.28,0,1
55,4,2,0,1,0,3.14,0,1
55,5,2,1,0,0,2.91,1,4
55,6,2,1,1,0,3.75,0,2
55,7,2,0,0,0,3.1,1,3
55,8,2,0,0,0,4.13,1,3
55,9,2,1,0,1,5.1,0,4
55,10,2,1,1,1,2.75,1,2
55,11,2,0,0,0,4.38,1,3
55,12,2,0,1,0,3.77,0,1
55,13,2,1,0,0,3.37,1,4
55,14,2,0,0,0,2.34,1,3
55,15,2,1,0,1,1.71,0,4
55,16,2,1,0,1,4.42,0,4
55,17,2,1,0,0,2.94,1,4
55,18,2,0,0,0,3.57,1,3
55,19,2,0,0,1,3.48,0,3
55,20,2,1,0,0,2.73,1,4
55,21,2,1,1,0,2.79,0,2
55,22,2,1,1,1,2.67,1,2
55,23,2,1,1,0,1.84,0,2
55,24,2,0,0,1,2.35,0,3
55,25,2,1,0,0,2.28,1,4
55,26,2,0,0,0,1.95,1,3
55,27,2,0,1,0,3.15,0,1
55,28,2,0,1,1,4.66,1,1
55,29,2,0,1,1,5.2,1,1
55,30,2,1,1,1,2.34,1,2
55,31,2,0,1,0,3.15,0,1
55,32,2,1,1,1,5.33,1,2
55,33,2,0,0,0,1.92,1,3
55,34,2,0,1,0,2.43,0,1
55,35,2,1,1,1,3.45,1,2
55,36,2,1,1,0,2.93,0,2
55,37,2,1,1,1,5.04,1,2
55,38,2,0,0,1,1.67,0,3
55,39,2,1,1,1,3.53,1,2
55,40,2,0,0,1,2.02,0,3
55,41,2,0,0,0,2.78,1,3
55,42,2,1,1,0,1.88,0,2
55,43,2,1,0,1,2.1,0,4
55,44,2,0,1,1,2.79,1,1
55,45,2,1,1,1,1.83,1,2
55,46,2,0,0,1,3.4,0,3
55,47,2,1,0,0,2.65,1,4
55,48,2,1,1,0,4.62,0,2
55,49,2,0,1,1,2.2,1,1
55,50,2,1,0,0,2.27,1,4
55,51,2,1,0,1,2.93,0,4
55,52,2,0,1,0,2.98,0,1
55,53,2,0,1,0,2.58,0,1
55,55,2,1,1,0,3.97,0,2
55,56,2,1,0,0,3.34,1,4
55,57,2,0,1,1,3.58,1,1
55,58,2,0,1,0,2.76,0,1
55,59,2,0,0,1,3.08,0,3
55,60,2,1,0,1,3.32,0,4
56,1,2,0,0,1,3.7,0,3
56,2,2,1,0,0,3.83,1,4
56,3,2,1,0,1,3.5,0,4
56,4,2,1,1,0,3.75,0,2
56,5,2,1,1,1,2.34,1,2
56,6,2,1,0,0,4.2,1,4
56,7,2,0,1,1,3.72,1,1
56,8,2,0,0,1,2.89,0,3
56,9,2,1,0,0,2.84,1,4
56,10,2,0,0,1,2.44,0,3
56,11,2,1,0,1,2.66,0,4
56,12,2,0,0,0,3.44,1,3
56,13,2,0,1,0,2.95,0,1
56,14,2,0,1,1,2.4,1,1
56,15,2,1,1,0,2.45,0,2
56,16,2,1,0,1,2.17,0,4
56,17,2,1,0,1,2.69,0,4
56,18,2,0,0,0,2.44,1,3
56,21,2,1,1,0,4.31,0,2
56,22,2,0,0,1,2.37,0,3
56,23,2,0,1,1,4.29,1,1
56,24,2,1,1,1,4.76,1,2
56,25,2,0,1,1,1.87,1,1
56,26,2,1,0,0,4.66,1,4
56,27,2,1,0,0,3.28,1,4
56,28,2,0,0,0,5.41,1,3
56,29,2,0,1,1,3.53,1,1
56,30,2,0,1,0,2.72,0,1
56,31,2,1,1,1,3.77,1,2
56,32,2,1,0,1,4.97,0,4
56,33,2,0,0,0,4.22,1,3
56,34,2,0,1,1,2.94,1,1
56,35,2,1,1,0,2,0,2
56,36,2,1,1,1,3.34,1,2
56,37,2,0,1,0,2.92,0,1
56,38,2,0,0,0,4.14,1,3
56,39,2,0,0,1,2.34,0,3
56,40,2,0,0,0,4.89,1,3
56,41,2,0,0,1,3.85,0,3
56,42,2,1,1,1,4.41,1,2
56,44,2,1,0,0,4.55,1,4
56,45,2,0,0,1,3.17,0,3
56,46,2,1,0,1,3.1,0,4
56,47,2,0,1,1,4.72,1,1
56,48,2,0,1,1,3.19,1,1
56,49,2,1,1,0,4.03,0,2
56,50,2,1,0,1,2.92,0,4
56,51,2,1,1,0,3.09,0,2
56,52,2,0,1,1,5.11,1,1
56,53,2,1,1,1,2.92,1,2
56,54,2,1,0,1,3.38,0,4
56,55,2,0,1,0,4.38,0,1
56,56,2,0,0,1,4.65,0,3
56,57,2,1,1,0,3.47,0,2
56,58,2,1,1,1,3.5,1,2
56,59,2,0,0,0,3.91,1,3
56,60,2,0,1,1,3.47,1,1
57,1,2,0,0,1,2.76,0,3
57,2,2,0,1,0,2.82,0,1
57,3,2,0,1,1,2.13,1,1
57,4,2,1,0,1,2.03,0,4
57,5,2,0,1,0,1.82,0,1
57,6,2,1,0,1,2.9,0,4
57,7,2,1,0,0,2.48,1,4
57,8,2,0,1,1,2.79,1,1
57,9,2,1,1,1,2.9,1,2
57,10,2,0,0,1,2.39,0,3
57,11,2,1,1,0,2.57,0,2
57,12,2,1,0,0,2.25,1,4
57,13,2,0,0,0,2.6,1,3
57,14,2,0,1,1,3.22,1,1
57,15,2,1,1,1,2.38,1,2
57,16,2,1,0,0,2.51,1,4
57,17,2,1,0,1,2.05,0,4
57,18,2,1,1,1,1.63,1,2
57,19,2,1,1,0,2.82,0,2
57,20,2,0,1,1,2.63,1,1
57,21,2,1,1,1,1.31,1,2
57,22,2,0,0,1,1.63,0,3
57,23,2,1,0,1,1.58,0,4
57,24,2,1,0,1,1.55,0,4
57,25,2,1,0,1,3.66,0,4
57,26,2,0,0,1,3.25,0,3
57,27,2,1,0,1,3.46,0,4
57,28,2,0,0,0,2.74,1,3
57,29,2,0,0,0,1.87,1,3
57,30,2,0,0,1,2.28,0,3
57,31,2,1,1,1,3.2,1,2
57,32,2,1,0,1,1.89,0,4
57,33,2,1,1,1,2.65,1,2
57,34,2,0,1,1,2.63,1,1
57,35,2,0,1,0,2.43,0,1
57,36,2,1,1,0,2.6,0,2
57,37,2,1,0,1,1.69,0,4
57,38,2,0,0,0,3.04,1,3
57,39,2,1,0,1,2.08,0,4
57,41,2,1,1,0,2.98,0,2
57,42,2,0,0,1,3.22,0,3
57,43,2,0,1,0,2.84,0,1
57,44,2,0,1,0,2.74,0,1
57,45,2,0,0,1,4.41,0,3
57,46,2,1,1,1,3.27,1,2
57,47,2,0,0,0,3.54,1,3
57,48,2,0,1,0,3.03,0,1
57,49,2,0,1,0,2.37,0,1
57,50,2,1,1,1,2.21,1,2
57,51,2,0,1,0,1.52,0,1
57,52,2,0,1,1,3.86,1,1
57,53,2,1,1,1,3.38,1,2
57,54,2,0,0,0,3.41,1,3
57,55,2,0,0,1,3.26,0,3
57,56,2,0,1,1,3.23,1,1
57,57,2,1,1,1,2.17,1,2
57,58,2,1,0,0,3.28,1,4
57,59,2,1,0,1,1.77,0,4
57,60,2,0,0,0,2.73,1,3
58,1,2,1,0,1,4.62,0,4
58,2,2,0,1,0,4.17,0,1
58,3,2,1,0,1,3.92,0,4
58,4,2,0,1,0,4.63,0,1
58,5,2,0,0,1,4.19,0,3
58,6,2,1,0,0,4.04,1,4
58,7,2,1,1,1,2.85,1,2
58,8,2,0,0,0,4.07,1,3
58,9,2,1,1,1,2.57,1,2
58,10,2,1,1,1,6.37,1,2
58,11,2,0,0,0,5.14,1,3
58,12,2,0,1,0,4.66,0,1
58,13,2,0,1,1,5.43,1,1
58,14,2,1,0,1,3.58,0,4
58,15,2,1,1,0,5.68,0,2
58,16,2,0,0,0,3.33,1,3
58,17,2,0,1,1,2.93,1,1
58,18,2,1,0,1,4.11,0,4
58,19,2,1,1,1,2.99,1,2
58,20,2,0,0,0,3.35,1,3
58,21,2,1,1,1,3.85,1,2
58,22,2,1,1,1,3.03,1,2
58,23,2,1,1,1,4.38,1,2
58,24,2,1,0,1,3.03,0,4
58,25,2,1,0,1,3.98,0,4
58,26,2,0,1,1,2.47,1,1
58,27,2,0,0,0,1.94,1,3
58,28,2,0,1,1,2.77,1,1
58,29,2,1,0,0,3.29,1,4
58,30,2,1,0,1,2.48,0,4
58,31,2,1,1,1,3.77,1,2
58,32,2,1,0,0,2.58,1,4
58,33,2,0,1,0,4.11,0,1
58,34,2,1,0,1,5.24,0,4
58,35,2,1,1,1,3.68,1,2
58,36,2,0,1,0,2.67,0,1
58,38,2,1,1,1,3.02,1,2
58,39,2,1,0,1,2.69,0,4
58,40,2,1,0,1,2.95,0,4
58,41,2,1,0,1,2.97,0,4
58,42,2,0,0,1,6.92,0,3
58,43,2,0,0,0,2.08,1,3
58,44,2,0,0,1,3.23,0,3
58,45,2,0,0,0,3.44,1,3
58,46,2,1,0,1,4.22,0,4
58,47,2,0,0,0,4.6,1,3
58,48,2,1,1,0,2.99,0,2
58,49,2,1,1,1,2.82,1,2
58,50,2,0,0,1,4.24,0,3
58,51,2,0,1,0,5,0,1
58,52,2,0,1,1,3.66,1,1
58,53,2,0,0,1,3.05,0,3
58,54,2,1,1,1,2.64,1,2
58,55,2,0,1,1,4.59,1,1
58,56,2,0,1,0,4.12,0,1
58,57,2,1,1,1,2.92,1,2
58,58,2,0,1,1,4.97,1,1
58,59,2,0,1,0,2.86,0,1
58,60,2,0,0,1,2.8,0,3
59,1,2,0,0,0,2.92,1,3
59,2,2,0,1,1,1.78,1,1
59,3,2,1,0,0,1.7,1,4
59,4,2,0,0,1,1.54,0,3
59,5,2,1,0,1,1.83,0,4
59,6,2,0,1,0,1.86,0,1
59,8,2,0,0,1,1.42,0,3
59,10,2,1,1,1,1.43,1,2
59,11,2,1,1,1,2.34,1,2
59,12,2,1,1,1,1.55,1,2
59,14,2,0,0,1,2.46,0,3
59,15,2,0,1,0,1.75,0,1
59,16,2,0,0,1,2.82,0,3
59,17,2,1,0,0,2.1,1,4
59,18,2,0,0,0,1.67,1,3
59,19,2,0,1,1,1.2,1,1
59,20,2,0,0,1,1.37,0,3
59,21,2,0,0,1,1.78,0,3
59,22,2,1,1,1,1.13,1,2
59,23,2,1,0,0,2.25,1,4
59,24,2,1,1,1,1.75,1,2
59,25,2,1,1,1,1.32,1,2
59,26,2,1,1,0,3.77,0,2
59,27,2,0,1,1,2.37,1,1
59,28,2,0,1,0,1.21,0,1
59,29,2,0,1,1,2.44,1,1
59,30,2,1,1,1,1.22,1,2
59,31,2,0,0,1,1.69,0,3
59,32,2,1,0,1,1.49,0,4
59,33,2,1,0,1,1.9,0,4
59,34,2,1,1,1,1.78,1,2
59,35,2,0,0,1,1.15,0,3
59,36,2,0,1,1,1.21,1,1
59,37,2,1,0,1,2.48,0,4
59,38,2,1,1,1,1.59,1,2
59,39,2,0,0,1,2.47,0,3
59,40,2,1,0,1,2.63,0,4
59,41,2,1,1,1,1.65,1,2
59,42,2,0,0,1,1.84,0,3
59,43,2,1,1,1,1.35,1,2
59,44,2,0,0,1,2.12,0,3
59,45,2,1,0,1,1.16,0,4
59,46,2,0,0,1,2.1,0,3
59,47,2,1,0,1,3,0,4
59,48,2,0,1,1,2.11,1,1
59,49,2,0,1,0,1.7,0,1
59,50,2,1,1,1,2.02,1,2
59,51,2,0,1,1,1.2,1,1
59,52,2,0,1,1,1.86,1,1
59,53,2,1,0,1,1.93,0,4
59,54,2,0,0,0,2.25,1,3
59,55,2,0,1,1,1.41,1,1
59,56,2,0,1,1,1.9,1,1
59,57,2,1,1,1,1.35,1,2
59,58,2,0,1,1,2.12,1,1
60,1,2,1,1,0,4.16,0,2
60,2,2,1,0,0,3.51,1,4
60,3,2,1,0,1,3.69,0,4
60,4,2,0,1,1,4.86,1,1
60,5,2,1,0,0,3.7,1,4
60,6,2,0,1,1,3.11,1,1
60,7,2,1,0,1,7.69,0,4
60,8,2,1,0,0,5.69,1,4
60,9,2,0,1,1,5.98,1,1
60,10,2,0,1,1,4,1,1
60,11,2,0,0,1,8.8,0,3
60,12,2,0,1,0,3.34,0,1
60,13,2,1,1,1,4.06,1,2
60,15,2,0,1,0,5.05,0,1
60,16,2,0,0,1,3.03,0,3
60,17,2,0,1,0,6.77,0,1
60,19,2,1,0,1,5.98,0,4
60,20,2,0,0,0,4.46,1,3
60,21,2,0,0,1,5.9,0,3
60,22,2,0,0,0,4.93,1,3
60,23,2,1,1,0,8.13,0,2
60,25,2,0,0,1,8.72,0,3
60,26,2,1,1,0,5.81,0,2
60,27,2,1,1,1,4.59,1,2
60,28,2,0,1,0,6.01,0,1
60,29,2,0,1,0,5.65,0,1
60,30,2,1,0,1,5.57,0,4
60,31,2,0,0,0,8.05,1,3
60,32,2,1,0,1,4.03,0,4
60,33,2,0,1,0,5.43,0,1
60,34,2,0,1,0,8.31,0,1
60,35,2,1,1,0,4.62,0,2
60,36,2,1,0,0,6.55,1,4
60,37,2,0,0,0,5.02,1,3
60,38,2,0,1,1,6.69,1,1
60,39,2,1,0,0,5.3,1,4
60,40,2,1,0,1,3.47,0,4
60,41,2,0,0,1,6.24,0,3
60,42,2,1,1,1,5.56,1,2
60,43,2,1,1,0,6.58,0,2
60,44,2,1,0,0,7.8,1,4
60,45,2,1,1,1,5.21,1,2
60,46,2,0,0,1,3.84,0,3
60,47,2,0,0,1,4.33,0,3
60,48,2,1,0,0,8.43,1,4
60,49,2,1,1,1,7.19,1,2
60,50,2,1,1,0,4.25,0,2
60,51,2,1,1,1,4.06,1,2
60,52,2,0,0,1,6.59,0,3
60,53,2,0,0,1,4.76,0,3
60,54,2,0,1,1,5.32,1,1
60,55,2,0,1,0,6.64,0,1
60,56,2,1,1,0,5.77,0,2
60,57,2,0,0,1,5.26,0,3
60,58,2,1,1,0,4.07,0,2
60,59,2,1,0,0,4.5,1,4
60,60,2,1,1,1,4.72,1,2
61,1,2,0,1,0,2.18,0,1
61,2,2,1,1,0,4.62,0,2
61,3,2,0,1,1,3.55,1,1
61,4,2,1,1,0,3.44,0,2
61,5,2,0,0,0,4.13,1,3
61,6,2,1,0,0,3.27,1,4
61,8,2,1,0,1,2.69,0,4
61,10,2,1,0,0,3.27,1,4
61,11,2,0,0,1,2.37,0,3
61,12,2,1,1,0,2.42,0,2
61,13,2,0,0,0,2.94,1,3
61,14,2,1,1,1,4.74,1,2
61,15,2,0,0,1,2.28,0,3
61,16,2,1,1,0,3.47,0,2
61,17,2,1,1,1,3.6,1,2
61,18,2,1,0,1,2.85,0,4
61,19,2,1,0,1,4.33,0,4
61,20,2,1,0,0,3.83,1,4
61,21,2,1,1,1,3.62,1,2
61,22,2,1,0,1,3.5,0,4
61,23,2,1,1,1,1.88,1,2
61,24,2,0,0,0,3.53,1,3
61,25,2,1,0,0,2.26,1,4
61,26,2,0,1,1,2.37,1,1
61,27,2,0,1,0,4.03,0,1
61,28,2,1,1,1,3.73,1,2
61,29,2,0,0,1,3.66,0,3
61,30,2,1,1,1,2.04,1,2
61,31,2,0,0,1,3.01,0,3
61,32,2,0,1,0,2.91,0,1
61,33,2,1,0,1,2.85,0,4
61,34,2,0,1,0,2.83,0,1
61,35,2,0,1,1,3.37,1,1
61,36,2,0,1,1,3.79,1,1
61,37,2,0,1,1,2.37,1,1
61,38,2,0,1,1,2.88,1,1
61,39,2,1,0,1,2.38,0,4
61,40,2,0,1,0,2.7,0,1
61,41,2,1,0,1,2.96,0,4
61,42,2,1,1,0,2.41,0,2
61,43,2,1,0,1,4.4,0,4
61,44,2,0,0,0,3.41,1,3
61,45,2,0,0,1,2.25,0,3
61,46,2,0,1,0,2.07,0,1
61,47,2,1,0,1,1.96,0,4
61,48,2,1,1,0,2.93,0,2
61,49,2,1,0,1,2.63,0,4
61,50,2,0,1,0,1.97,0,1
61,51,2,1,0,1,3.98,0,4
61,52,2,1,1,1,1.94,1,2
61,53,2,0,1,0,2.19,0,1
61,54,2,0,0,1,2.36,0,3
61,55,2,0,0,1,3.52,0,3
61,56,2,0,0,1,3.1,0,3
61,57,2,0,0,0,2.3,1,3
61,58,2,0,0,0,2.08,1,3
61,59,2,1,1,1,2.3,1,2
61,60,2,1,1,0,1.94,0,2
62,1,2,0,0,1,4.71,0,3
62,2,2,1,1,0,5.02,0,2
62,3,2,1,1,0,5.77,0,2
62,4,2,0,1,1,4.1,1,1
62,5,2,1,1,1,3.04,1,2
62,6,2,0,0,0,2.75,1,3
62,7,2,1,0,1,5.01,0,4
62,8,2,0,0,0,4.77,1,3
62,9,2,1,0,1,5,0,4
62,10,2,1,0,1,4.37,0,4
62,11,2,1,1,1,3.15,1,2
62,12,2,0,0,1,4.86,0,3
62,13,2,1,0,1,4.85,0,4
62,14,2,0,1,1,5.12,1,1
62,15,2,0,0,1,7.05,0,3
62,16,2,0,1,1,5.07,1,1
62,17,2,0,0,1,4.19,0,3
62,18,2,1,1,0,7.6,0,2
62,19,2,1,0,1,6.33,0,4
62,20,2,1,1,0,5.63,0,2
62,21,2,1,0,0,5.7,1,4
62,22,2,0,1,0,4.92,0,1
62,23,2,0,1,0,4.03,0,1
62,24,2,1,1,1,4.96,1,2
62,25,2,1,1,0,4.82,0,2
62,26,2,0,1,1,3.82,1,1
62,27,2,1,0,1,7.51,0,4
62,28,2,1,1,0,4.19,0,2
62,29,2,0,0,1,3.47,0,3
62,30,2,0,1,1,5.81,1,1
62,31,2,1,1,0,3.93,0,2
62,32,2,1,0,1,6.03,0,4
62,33,2,1,0,0,4.19,1,4
62,34,2,1,0,1,4.78,0,4
62,35,2,1,0,1,4.02,0,4
62,36,2,1,0,1,3.85,0,4
62,37,2,0,0,0,5.01,1,3
62,38,2,0,0,0,6.4,1,3
62,39,2,0,1,1,5.29,1,1
62,40,2,0,1,1,4.52,1,1
62,41,2,1,0,1,4.7,0,4
62,42,2,0,0,0,7.63,1,3
62,43,2,0,1,1,3.08,1,1
62,44,2,1,1,1,4.98,1,2
62,45,2,0,1,1,7.22,1,1
62,46,2,1,1,0,5.08,0,2
62,47,2,0,0,1,4.13,0,3
62,48,2,0,1,0,4.41,0,1
62,49,2,0,1,1,6.55,1,1
62,50,2,1,0,0,5.56,1,4
62,51,2,1,1,0,3.72,0,2
62,52,2,0,0,1,6.62,0,3
62,53,2,0,0,0,7.83,1,3
62,54,2,0,1,0,7.73,0,1
62,55,2,1,0,0,5.6,1,4
62,56,2,0,0,1,2.95,0,3
62,57,2,0,1,0,5.87,0,1
62,58,2,1,1,0,7.78,0,2
62,59,2,0,0,0,3.31,1,3
62,60,2,1,1,0,7.95,0,2
63,1,2,0,1,1,3.15,1,1
63,2,2,0,1,0,4.97,0,1
63,3,2,0,1,0,7.77,0,1
63,4,2,0,1,0,5.71,0,1
63,5,2,1,1,1,2.55,1,2
63,6,2,0,0,1,4.78,0,3
63,7,2,1,0,1,2.37,0,4
63,8,2,1,0,1,3.92,0,4
63,9,2,1,0,1,3.66,0,4
63,10,2,0,1,0,6.94,0,1
63,11,2,1,1,1,6.23,1,2
63,13,2,0,0,1,5.46,0,3
63,14,2,0,0,1,4.51,0,3
63,15,2,1,1,1,5.39,1,2
63,16,2,1,1,0,5.23,0,2
63,17,2,0,0,1,4.52,0,3
63,18,2,0,0,1,4.49,0,3
63,19,2,1,1,1,6.49,1,2
63,20,2,0,0,1,3.84,0,3
63,21,2,0,0,1,2.89,0,3
63,22,2,1,0,1,4.14,0,4
63,23,2,0,1,0,6.01,0,1
63,24,2,0,1,0,4.99,0,1
63,25,2,0,0,1,5.09,0,3
63,26,2,0,1,0,3.97,0,1
63,27,2,1,0,1,6.33,0,4
63,28,2,0,0,1,6.88,0,3
63,29,2,0,0,1,5.45,0,3
63,30,2,0,1,1,4.95,1,1
63,31,2,0,1,1,4.17,1,1
63,32,2,0,1,1,4.66,1,1
63,33,2,0,1,0,4.29,0,1
63,34,2,1,0,0,4.17,1,4
63,35,2,1,0,1,2.26,0,4
63,36,2,0,1,0,3.57,0,1
63,37,2,0,0,1,3.9,0,3
63,38,2,1,1,0,4.26,0,2
63,39,2,1,1,0,2.92,0,2
63,40,2,1,1,1,5.06,1,2
63,41,2,0,0,1,6.91,0,3
63,42,2,1,0,1,6.02,0,4
63,43,2,1,1,0,3.66,0,2
63,44,2,1,1,0,4.8,0,2
63,45,2,1,1,0,6.56,0,2
63,46,2,1,1,1,3.61,1,2
63,47,2,0,0,1,5.07,0,3
63,48,2,1,1,0,3.4,0,2
63,50,2,1,0,0,4.1,1,4
63,51,2,1,0,1,3.14,0,4
63,52,2,1,0,0,2.78,1,4
63,53,2,0,1,1,3.63,1,1
63,54,2,0,0,0,7.04,1,3
63,55,2,1,0,1,9.57,0,4
63,56,2,1,1,1,3.3,1,2
63,57,2,1,0,0,3.92,1,4
63,58,2,1,0,0,4.28,1,4
63,59,2,1,1,0,5.74,0,2
63,60,2,0,0,1,6.74,0,3
64,1,2,1,0,1,2.57,0,4
64,2,2,1,1,0,3.65,0,2
64,3,2,1,0,0,2.78,1,4
64,4,2,1,0,0,3.08,1,4
64,5,2,1,0,1,2.93,0,4
64,6,2,1,1,1,2.7,1,2
64,7,2,1,1,0,2.82,0,2
64,8,2,0,1,1,2.88,1,1
64,9,2,0,0,1,2.72,0,3
64,10,2,0,0,0,2.98,1,3
64,11,2,0,1,0,3.12,0,1
64,12,2,0,0,1,3.46,0,3
64,13,2,1,1,0,2.4,0,2
64,14,2,0,1,1,3.16,1,1
64,15,2,0,1,1,3.45,1,1
64,16,2,0,1,0,3.61,0,1
64,17,2,1,0,1,3.75,0,4
64,18,2,0,0,1,4.97,0,3
64,19,2,1,0,1,4.07,0,4
64,20,2,1,0,0,3.93,1,4
64,21,2,0,0,0,3.33,1,3
64,22,2,1,1,1,3.02,1,2
64,23,2,0,1,0,4.36,0,1
64,24,2,0,1,1,2.79,1,1
64,25,2,1,1,0,3.78,0,2
64,26,2,0,0,1,3.79,0,3
64,27,2,0,1,1,3.55,1,1
64,28,2,1,0,1,3.55,0,4
64,29,2,0,0,0,3.2,1,3
64,30,2,1,0,1,4.32,0,4
64,31,2,1,1,0,3.38,0,2
64,32,2,0,0,1,3.34,0,3
64,33,2,1,0,1,4.93,0,4
64,34,2,0,1,0,2.47,0,1
64,35,2,0,1,1,3.09,1,1
64,36,2,0,0,0,2.97,1,3
64,37,2,1,1,1,3.85,1,2
64,38,2,1,1,0,2.25,0,2
64,39,2,1,1,1,4.6,1,2
64,40,2,0,0,1,3.38,0,3
64,41,2,1,1,0,2.49,0,2
64,42,2,0,0,1,2.52,0,3
64,43,2,0,1,1,2.79,1,1
64,44,2,1,1,0,3.69,0,2
64,45,2,1,0,1,1.93,0,4
64,46,2,0,1,1,4.65,1,1
64,47,2,1,1,1,4.33,1,2
64,48,2,1,1,1,2.95,1,2
64,49,2,1,0,0,4.57,1,4
64,51,2,0,0,0,2.95,1,3
64,52,2,1,0,1,3.82,0,4
64,53,2,0,1,0,2.9,0,1
64,54,2,1,1,1,4.05,1,2
64,55,2,0,0,0,3.26,1,3
64,56,2,0,0,1,2.67,0,3
64,57,2,0,0,0,2.65,1,3
64,58,2,0,1,0,4.81,0,1
64,59,2,0,1,0,3.4,0,1
64,60,2,1,0,0,2.3,1,4
65,1,2,0,0,1,2.27,0,3
65,2,2,0,0,0,2.24,1,3
65,3,2,1,0,1,2.3,0,4
65,4,2,1,1,1,2.12,1,2
65,5,2,1,1,1,2.33,1,2
65,6,2,0,0,0,2.07,1,3
65,7,2,1,0,1,2.07,0,4
65,8,2,0,0,0,2.18,1,3
65,9,2,0,0,0,2.4,1,3
65,11,2,0,1,1,1.9,1,1
65,12,2,0,0,0,2.1,1,3
65,13,2,0,1,1,1.62,1,1
65,14,2,1,0,1,1.86,0,4
65,15,2,1,0,0,2.42,1,4
65,16,2,1,1,0,3.59,0,2
65,17,2,1,0,1,2.43,0,4
65,18,2,0,0,1,2.17,0,3
65,19,2,0,1,0,2.66,0,1
65,20,2,0,0,1,2.46,0,3
65,21,2,0,1,0,2.45,0,1
65,22,2,1,1,1,2.67,1,2
65,23,2,0,0,1,2.19,0,3
65,24,2,0,1,1,2.9,1,1
65,25,2,1,0,1,2.04,0,4
65,26,2,0,1,0,2.71,0,1
65,27,2,0,1,0,2.33,0,1
65,28,2,0,1,0,2.3,0,1
65,29,2,1,1,1,2.32,1,2
65,30,2,0,1,0,2.93,0,1
65,31,2,1,1,1,1.78,1,2
65,32,2,1,1,0,2.98,0,2
65,33,2,0,1,1,2.89,1,1
65,34,2,1,1,1,3.14,1,2
65,35,2,1,0,0,2.14,1,4
65,36,2,1,0,1,2.09,0,4
65,37,2,0,1,1,2.39,1,1
65,38,2,0,0,1,2.88,0,3
65,39,2,0,0,0,2.23,1,3
65,40,2,1,1,0,2.46,0,2
65,41,2,0,0,0,2.77,1,3
65,42,2,1,0,0,2.7,1,4
65,43,2,1,1,1,3.23,1,2
65,44,2,0,0,1,4.3,0,3
65,45,2,1,1,0,2.75,0,2
65,46,2,1,0,1,1.76,0,4
65,47,2,1,0,1,2.23,0,4
65,48,2,1,1,0,2.67,0,2
65,49,2,0,1,1,3.01,1,1
65,50,2,1,0,1,3.06,0,4
65,51,2,1,0,1,2.83,0,4
65,52,2,1,0,0,2.59,1,4
65,53,2,1,1,1,3.13,1,2
65,54,2,0,1,0,2.11,0,1
65,55,2,1,0,1,2.29,0,4
65,56,2,0,0,1,2.41,0,3
65,57,2,0,1,1,2.86,1,1
65,58,2,0,1,1,3.13,1,1
65,59,2,1,1,1,2.62,1,2
65,60,2,1,1,0,1.86,0,2
66,1,2,0,0,1,5.74,0,3
66,2,2,0,0,1,4.07,0,3
66,3,2,0,0,1,5.33,0,3
66,4,2,1,0,1,4.98,0,4
66,5,2,0,0,0,7.06,1,3
66,6,2,1,1,1,5.05,1,2
66,8,2,1,1,1,3.87,1,2
66,9,2,0,0,0,4.51,1,3
66,10,2,0,1,0,6.53,0,1
66,11,2,0,0,1,4.77,0,3
66,12,2,1,1,1,3.69,1,2
66,13,2,1,0,1,7.43,0,4
66,14,2,1,0,1,4.92,0,4
66,15,2,1,0,1,4.35,0,4
66,16,2,1,1,0,5.8,0,2
66,17,2,1,0,1,2.47,0,4
66,18,2,1,0,1,3.41,0,4
66,19,2,0,0,0,6.4,1,3
66,20,2,0,1,0,4.32,0,1
66,21,2,1,1,1,6.6,1,2
66,22,2,0,1,1,5.61,1,1
66,23,2,0,1,1,3.24,1,1
66,24,2,1,0,1,4.19,0,4
66,25,2,1,0,1,4.47,0,4
66,26,2,0,1,1,6.14,1,1
66,27,2,1,0,1,3.25,0,4
66,28,2,0,1,1,3.77,1,1
66,29,2,0,0,0,4.73,1,3
66,30,2,0,1,1,4.97,1,1
66,31,2,1,1,1,4.7,1,2
66,32,2,0,0,1,5.05,0,3
66,33,2,1,0,0,4.67,1,4
66,34,2,0,0,1,3.49,0,3
66,35,2,1,0,0,3.74,1,4
66,36,2,1,1,0,5.42,0,2
66,37,2,0,1,0,4.55,0,1
66,38,2,1,0,0,5.19,1,4
66,39,2,0,0,1,2.66,0,3
66,40,2,0,0,0,6.2,1,3
66,41,2,0,1,1,5.81,1,1
66,42,2,0,1,1,3.17,1,1
66,43,2,1,1,1,3.18,1,2
66,44,2,1,1,0,4.05,0,2
66,45,2,0,0,1,6.77,0,3
66,46,2,0,1,1,4.48,1,1
66,47,2,0,1,1,3.02,1,1
66,48,2,1,0,1,5.28,0,4
66,49,2,1,1,1,4.52,1,2
66,50,2,1,1,0,4.53,0,2
66,51,2,0,1,1,5.7,1,1
66,52,2,0,1,1,3.92,1,1
66,53,2,1,0,1,4.47,0,4
66,54,2,1,1,1,3,1,2
66,55,2,1,1,1,2.76,1,2
66,56,2,1,1,1,2.9,1,2
66,57,2,0,1,1,5.2,1,1
66,58,2,0,0,1,4.26,0,3
66,59,2,1,0,0,3.97,1,4
67,1,2,0,0,1,3.09,0,3
67,2,2,1,0,1,2.65,0,4
67,3,2,0,0,0,3.66,1,3
67,4,2,0,1,0,3.77,0,1
67,5,2,0,1,1,4.83,1,1
67,6,2,0,1,0,5.07,0,1
67,7,2,1,1,0,6.99,0,2
67,9,2,0,1,1,4.86,1,1
67,10,2,0,0,1,5.84,0,3
67,11,2,1,0,1,2.93,0,4
67,12,2,0,0,0,4.67,1,3
67,13,2,1,0,1,4.51,0,4
67,14,2,1,1,0,4.04,0,2
67,15,2,0,0,1,4.31,0,3
67,16,2,1,0,0,5.33,1,4
67,17,2,1,0,1,3.87,0,4
67,18,2,1,0,0,4.92,1,4
67,19,2,1,1,0,4.4,0,2
67,20,2,1,1,1,4.46,1,2
67,21,2,0,0,1,5.68,0,3
67,22,2,1,1,0,5.07,0,2
67,23,2,1,1,0,4.42,0,2
67,24,2,0,1,0,4.94,0,1
67,25,2,0,1,0,6.92,0,1
67,26,2,1,1,0,6.95,0,2
67,27,2,1,0,1,6.34,0,4
67,29,2,1,0,1,5.87,0,4
67,30,2,0,0,0,2.8,1,3
67,31,2,0,1,1,4,1,1
67,32,2,1,0,0,2.68,1,4
67,33,2,0,0,1,4.81,0,3
67,35,2,1,1,1,3.28,1,2
67,36,2,1,0,0,3.83,1,4
67,37,2,0,1,0,5.74,0,1
67,38,2,0,0,1,7.44,0,3
67,39,2,0,1,0,6.86,0,1
67,40,2,1,1,0,2.78,0,2
67,41,2,0,1,1,2.64,1,1
67,43,2,1,1,1,4.93,1,2
67,44,2,1,0,1,3.69,0,4
67,45,2,0,1,0,2.58,0,1
67,47,2,1,0,1,2.62,0,4
67,48,2,0,0,1,2.88,0,3
67,49,2,0,1,1,4.72,1,1
67,50,2,0,0,1,3.52,0,3
67,51,2,0,1,1,3.57,1,1
67,52,2,1,0,0,3.05,1,4
67,53,2,1,1,1,5.18,1,2
67,54,2,1,1,0,3.38,0,2
67,55,2,0,0,0,7.39,1,3
67,56,2,0,0,1,7.31,0,3
67,57,2,1,0,0,5.69,1,4
67,58,2,0,1,0,2.22,0,1
67,59,2,1,1,1,5.3,1,2
67,60,2,0,0,1,3.05,0,3
68,1,2,0,1,0,2.58,0,1
68,2,2,1,0,0,4.58,1,4
68,3,2,1,0,0,4.23,1,4
68,4,2,0,1,0,3.97,0,1
68,5,2,0,1,0,3.28,0,1
68,6,2,0,1,0,6.13,0,1
68,7,2,1,1,1,2.73,1,2
68,8,2,1,1,1,4.75,1,2
68,9,2,1,1,0,4.96,0,2
68,10,2,0,0,0,5.77,1,3
68,11,2,0,0,0,5.75,1,3
68,12,2,0,0,0,5.31,1,3
68,13,2,0,1,1,4.33,1,1
68,14,2,1,1,0,6.26,0,2
68,15,2,0,0,1,6.28,0,3
68,16,2,0,0,1,4.23,0,3
68,17,2,1,1,0,4.86,0,2
68,18,2,1,1,1,7.15,1,2
68,19,2,1,0,1,3.31,0,4
68,20,2,1,1,1,5.38,1,2
68,22,2,1,0,1,7.47,0,4
68,23,2,1,1,0,4.48,0,2
68,24,2,0,1,1,5.12,1,1
68,25,2,0,1,1,4.03,1,1
68,26,2,1,1,1,4.45,1,2
68,27,2,1,0,1,4.8,0,4
68,28,2,1,0,1,4.56,0,4
68,29,2,0,0,1,5.71,0,3
68,30,2,1,0,1,3.18,0,4
68,31,2,0,1,1,5.77,1,1
68,32,2,0,0,1,8.1,0,3
68,33,2,0,0,1,5.67,0,3
68,34,2,0,0,1,3.92,0,3
68,35,2,0,1,0,5.83,0,1
68,36,2,0,0,1,3.09,0,3
68,37,2,1,0,0,5.22,1,4
68,38,2,0,1,1,8,1,1
68,39,2,0,0,1,6.2,0,3
68,40,2,1,0,1,3.58,0,4
68,41,2,1,0,1,4.18,0,4
68,42,2,1,1,1,7.2,1,2
68,43,2,1,1,1,5.96,1,2
68,44,2,1,1,0,3.35,0,2
68,45,2,0,1,1,4.75,1,1
68,46,2,1,1,1,3.24,1,2
68,47,2,1,1,0,3.28,0,2
68,48,2,0,0,0,1.97,1,3
68,49,2,0,0,1,4.75,0,3
68,50,2,1,0,0,3.88,1,4
68,51,2,0,0,1,4.57,0,3
68,52,2,0,1,0,4.04,0,1
68,53,2,1,0,1,4.01,0,4
68,54,2,0,1,1,3,1,1
68,55,2,1,0,1,4.28,0,4
68,56,2,1,1,0,3.65,0,2
68,57,2,1,0,1,6.84,0,4
68,58,2,0,0,1,5.71,0,3
68,59,2,0,1,1,4.45,1,1
68,60,2,0,1,0,2.9,0,1
69,1,2,1,1,1,3.99,1,2
69,2,2,0,1,0,7.12,0,1
69,3,2,0,0,1,7.75,0,3
69,4,2,0,0,0,3.54,1,3
69,5,2,1,0,1,5.42,0,4
69,6,2,0,0,1,2.5,0,3
69,7,2,1,0,0,8.82,1,4
69,8,2,0,1,1,2.88,1,1
69,9,2,1,0,0,3.56,1,4
69,10,2,0,1,1,2.65,1,1
69,11,2,0,1,0,2.66,0,1
69,12,2,1,1,1,5.2,1,2
69,13,2,0,1,0,8.28,0,1
69,14,2,0,0,1,2.39,0,3
69,15,2,1,0,1,4.8,0,4
69,17,2,1,0,1,6.2,0,4
69,18,2,1,0,1,5.66,0,4
69,19,2,0,1,1,8.17,1,1
69,20,2,1,1,0,5.37,0,2
69,22,2,0,0,0,2.9,1,3
69,23,2,0,1,1,8.39,1,1
69,25,2,1,1,0,4.25,0,2
69,26,2,0,1,1,4.28,1,1
69,27,2,1,0,1,4.6,0,4
69,28,2,1,1,0,4.57,0,2
69,29,2,0,0,0,2.92,1,3
69,30,2,1,1,1,4.47,1,2
69,31,2,0,0,1,3.73,0,3
69,32,2,1,1,0,6.02,0,2
69,34,2,1,0,1,5.01,0,4
69,35,2,1,1,0,8.92,0,2
69,36,2,1,1,0,4.03,0,2
69,37,2,0,1,1,3.17,1,1
69,38,2,0,0,1,5.82,0,3
69,39,2,0,1,0,4.6,0,1
69,40,2,0,1,1,5.06,1,1
69,41,2,1,1,1,5.25,1,2
69,42,2,0,1,0,2.88,0,1
69,43,2,1,0,0,7.8,1,4
69,44,2,0,1,1,7.21,1,1
69,45,2,1,0,0,3.83,1,4
69,46,2,1,0,1,6.61,0,4
69,47,2,1,0,0,4.98,1,4
69,48,2,1,1,1,7.35,1,2
69,49,2,0,0,0,7.03,1,3
69,50,2,1,1,1,6.18,1,2
69,51,2,0,0,1,5.47,0,3
69,52,2,1,1,0,5.77,0,2
69,53,2,1,0,1,8.42,0,4
69,54,2,0,0,1,3.77,0,3
69,55,2,1,0,1,3.38,0,4
69,56,2,1,1,1,3.87,1,2
69,58,2,0,0,1,5.19,0,3
69,59,2,0,1,0,7.55,0,1
69,60,2,0,0,1,4.1,0,3
70,1,2,1,1,1,2.95,1,2
70,2,2,0,1,0,2.72,0,1
70,3,2,0,1,1,3.68,1,1
70,4,2,1,0,1,2.8,0,4
70,5,2,0,0,1,4.43,0,3
70,6,2,0,1,0,3.01,0,1
70,7,2,1,0,1,2.55,0,4
70,8,2,1,0,0,4.47,1,4
70,9,2,0,1,1,1.83,1,1
70,10,2,1,0,1,2.07,0,4
70,11,2,0,1,1,3.69,1,1
70,12,2,0,0,1,3.19,0,3
70,13,2,1,1,1,2.87,1,2
70,14,2,1,1,1,2.11,1,2
70,15,2,0,1,0,2.54,0,1
70,16,2,0,1,1,2.53,1,1
70,17,2,0,0,1,5.5,0,3
70,18,2,0,0,0,3,1,3
70,19,2,1,1,1,2.22,1,2
70,20,2,1,0,1,4.82,0,4
70,21,2,1,0,1,2.75,0,4
70,22,2,0,0,0,2.42,1,3
70,23,2,1,0,1,4.53,0,4
70,24,2,0,1,0,2.54,0,1
70,25,2,1,1,0,2.77,0,2
70,26,2,1,0,1,3.32,0,4
70,27,2,0,0,0,3.83,1,3
70,28,2,1,0,1,1.92,0,4
70,29,2,1,0,1,2.86,0,4
70,30,2,1,0,1,1.59,0,4
70,31,2,1,1,1,2.72,1,2
70,32,2,0,0,0,1.8,1,3
70,33,2,0,1,0,3.49,0,1
70,34,2,1,1,1,3.04,1,2
70,35,2,1,1,0,5.04,0,2
70,36,2,1,0,1,4.03,0,4
70,37,2,1,0,1,2.45,0,4
70,38,2,1,1,1,4.3,1,2
70,39,2,0,0,1,1.91,0,3
70,40,2,0,0,0,2.3,1,3
70,41,2,0,0,1,2.08,0,3
70,42,2,0,0,1,2.71,0,3
70,43,2,1,1,1,3.38,1,2
70,44,2,0,1,1,5.69,1,1
70,45,2,0,1,1,2.92,1,1
70,46,2,0,0,0,2.31,1,3
70,47,2,0,0,1,2.27,0,3
70,48,2,1,1,0,4.45,0,2
70,49,2,1,1,0,3.55,0,2
70,50,2,1,0,0,3.19,1,4
70,51,2,1,1,0,4.38,0,2
70,52,2,1,1,1,2.8,1,2
70,53,2,1,1,0,3.85,0,2
70,54,2,0,1,0,2.95,0,1
70,55,2,1,0,1,2.75,0,4
70,56,2,0,0,0,4.82,1,3
70,57,2,0,1,0,5.15,0,1
70,58,2,0,0,1,3.26,0,3
70,59,2,0,1,1,2.06,1,1
70,60,2,0,1,1,2.47,1,1
71,1,2,1,1,1,2.4,1,2
71,2,2,0,1,1,2.48,1,1
71,3,2,0,1,0,3.37,0,1
71,4,2,1,1,0,3.85,0,2
71,5,2,0,1,0,5.15,0,1
71,6,2,1,0,1,3.93,0,4
71,7,2,0,0,0,2.16,1,3
71,8,2,0,1,1,3.4,1,1
71,9,2,0,1,1,1.92,1,1
71,10,2,0,0,0,3.66,1,3
71,11,2,0,1,0,3.55,0,1
71,12,2,0,0,1,2.75,0,3
71,13,2,1,0,0,2.5,1,4
71,14,2,1,1,1,4.03,1,2
71,15,2,0,1,0,2.57,0,1
71,16,2,0,0,1,2.12,0,3
71,17,2,0,0,0,2.58,1,3
71,18,2,0,0,1,4.01,0,3
71,19,2,0,1,0,3.12,0,1
71,20,2,0,0,1,3.64,0,3
71,21,2,1,0,1,3.35,0,4
71,22,2,1,0,1,2.36,0,4
71,23,2,0,0,0,3.78,1,3
71,24,2,1,1,0,3.28,0,2
71,25,2,1,0,0,3.89,1,4
71,26,2,0,1,0,3.66,0,1
71,27,2,1,1,1,2.39,1,2
71,28,2,0,0,1,5.26,0,3
71,29,2,1,0,1,2.95,0,4
71,30,2,1,0,0,3.45,1,4
71,31,2,0,0,0,2.92,1,3
71,32,2,0,1,0,2.23,0,1
71,33,2,1,1,1,4.73,1,2
71,34,2,1,0,1,2.56,0,4
71,35,2,0,1,0,4.2,0,1
71,36,2,0,1,0,3.64,0,1
71,37,2,1,0,1,3.39,0,4
71,38,2,1,1,1,3.16,1,2
71,39,2,0,1,1,3.03,1,1
71,40,2,1,1,1,2.94,1,2
71,41,2,1,1,1,3.84,1,2
71,42,2,1,1,0,2.52,0,2
71,43,2,1,0,1,3.06,0,4
71,44,2,1,0,1,2.77,0,4
71,45,2,1,1,0,1.77,0,2
71,46,2,1,1,1,2.19,1,2
71,47,2,1,1,1,1.73,1,2
71,48,2,0,0,1,3.04,0,3
71,49,2,0,1,0,2.63,0,1
71,50,2,1,0,1,2.94,0,4
71,51,2,1,0,1,4.51,0,4
71,52,2,0,0,1,2.55,0,3
71,53,2,0,1,0,2.46,0,1
71,54,2,1,0,0,4.44,1,4
71,55,2,0,0,1,3.57,0,3
71,56,2,1,1,0,2.5,0,2
71,57,2,1,0,1,2.08,0,4
71,58,2,1,1,1,2.48,1,2
71,59,2,0,0,1,4.56,0,3
71,60,2,0,0,0,3.43,1,3
72,1,2,0,0,1,3.13,0,3
72,2,2,0,1,0,3.64,0,1
72,3,2,1,0,0,3.35,1,4
72,4,2,1,1,1,3.74,1,2
72,5,2,0,0,1,3.76,0,3
72,6,2,1,1,1,4.42,1,2
72,7,2,0,0,1,5.37,0,3
72,8,2,1,1,0,3.08,0,2
72,9,2,0,0,0,5.87,1,3
72,10,2,0,1,1,3.85,1,1
72,11,2,1,0,1,2.69,0,4
72,12,2,1,0,0,3.77,1,4
72,13,2,1,1,1,8.09,1,2
72,14,2,0,1,1,9.32,1,1
72,15,2,1,1,0,8.8,0,2
72,16,2,1,0,1,4.18,0,4
72,17,2,0,0,0,4.82,1,3
72,18,2,0,1,0,5.9,0,1
72,19,2,1,0,0,5.27,1,4
72,20,2,1,1,0,2.81,0,2
72,21,2,0,1,1,4.99,1,1
72,22,2,0,0,0,5.7,1,3
72,23,2,1,1,1,7.08,1,2
72,24,2,0,0,1,6.91,0,3
72,25,2,0,1,1,7.68,1,1
72,26,2,0,0,1,3.07,0,3
72,27,2,0,1,0,5.94,0,1
72,28,2,1,1,1,3.45,1,2
72,29,2,1,0,1,2.98,0,4
72,30,2,0,1,0,7.46,0,1
72,31,2,1,0,1,2.97,0,4
72,33,2,1,0,1,4.7,0,4
72,34,2,1,1,0,4.65,0,2
72,35,2,0,0,1,3.83,0,3
72,36,2,1,1,1,4.08,1,2
72,37,2,0,0,1,4.32,0,3
72,38,2,1,0,1,4.51,0,4
72,39,2,1,1,1,6.61,1,2
72,40,2,1,0,1,5.32,0,4
72,41,2,1,0,0,4.05,1,4
72,42,2,0,1,1,3.65,1,1
72,43,2,1,1,1,5.72,1,2
72,44,2,0,1,1,2.82,1,1
72,45,2,1,1,1,2.72,1,2
72,46,2,1,0,1,5.71,0,4
72,47,2,0,1,1,3.18,1,1
72,48,2,1,1,1,3.87,1,2
72,49,2,1,0,0,3.66,1,4
72,50,2,1,0,1,4.74,0,4
72,51,2,0,1,1,3.19,1,1
72,52,2,0,1,1,7.45,1,1
72,53,2,0,1,1,5.04,1,1
72,54,2,0,0,1,3.23,0,3
72,55,2,0,0,0,6.53,1,3
72,56,2,1,1,0,8.68,0,2
72,57,2,0,0,1,5.85,0,3
72,58,2,0,0,1,3.79,0,3
72,59,2,1,0,1,4.24,0,4
72,60,2,0,0,1,3.33,0,3
73,1,2,0,1,0,3.86,0,1
73,2,2,0,1,1,2.9,1,1
73,3,2,1,1,0,4.35,0,2
73,4,2,0,1,1,3.85,1,1
73,5,2,0,1,0,4.23,0,1
73,6,2,1,1,0,2.87,0,2
73,7,2,0,1,0,4.36,0,1
73,8,2,1,0,1,2.85,0,4
73,9,2,0,0,1,4.24,0,3
73,10,2,0,0,0,4.14,1,3
73,11,2,0,0,1,2.98,0,3
73,12,2,0,0,1,7.15,0,3
73,13,2,1,0,1,3.93,0,4
73,14,2,0,0,0,3.82,1,3
73,15,2,1,1,1,2.88,1,2
73,17,2,0,1,0,2.67,0,1
73,18,2,0,0,0,2.12,1,3
73,19,2,0,0,1,4.12,0,3
73,20,2,0,0,0,5.19,1,3
73,21,2,0,0,1,4.31,0,3
73,22,2,0,1,1,4.55,1,1
73,23,2,1,1,1,4.02,1,2
73,24,2,1,1,1,2.51,1,2
73,25,2,0,1,1,5.03,1,1
73,26,2,0,1,0,2.12,0,1
73,27,2,1,0,0,2.78,1,4
73,28,2,0,0,0,2.32,1,3
73,29,2,0,1,0,4.84,0,1
73,30,2,1,1,1,2.03,1,2
73,31,2,1,1,1,4.43,1,2
73,32,2,1,1,0,2.88,0,2
73,33,2,0,0,0,4.88,1,3
73,34,2,0,1,1,2.83,1,1
73,35,2,1,0,1,2.44,0,4
73,36,2,0,1,1,3.96,1,1
73,37,2,1,0,0,2.12,1,4
73,38,2,1,0,1,1.76,0,4
73,39,2,1,1,1,2.7,1,2
73,40,2,1,1,0,5.97,0,2
73,41,2,0,0,1,7.57,0,3
73,42,2,1,0,0,2.35,1,4
73,43,2,0,1,1,4.48,1,1
73,44,2,1,0,1,2.39,0,4
73,45,2,1,0,1,1.75,0,4
73,46,2,1,0,0,2.38,1,4
73,47,2,0,0,1,2.88,0,3
73,48,2,1,0,1,3.53,0,4
73,49,2,1,0,0,2.32,1,4
73,50,2,0,0,1,2.6,0,3
73,51,2,0,1,0,3.6,0,1
73,52,2,0,1,0,2.78,0,1
73,53,2,1,1,1,7.54,1,2
73,54,2,1,1,0,4.98,0,2
73,55,2,1,1,0,4.83,0,2
73,57,2,1,1,0,3.33,0,2
73,58,2,1,1,0,1.53,0,2
73,59,2,1,0,1,3.45,0,4
73,60,2,1,0,0,7.37,1,4
74,1,2,1,1,1,2.71,1,2
74,2,2,1,1,0,2.88,0,2
74,3,2,1,1,0,2.94,0,2
74,4,2,0,1,1,2.27,1,1
74,5,2,1,0,1,2.19,0,4
74,6,2,0,0,1,2.73,0,3
74,7,2,0,1,0,2.55,0,1
74,8,2,0,0,0,3.01,1,3
74,9,2,1,0,1,2.97,0,4
74,10,2,1,0,0,3.26,1,4
74,11,2,0,0,0,2.83,1,3
74,12,2,0,1,0,3.57,0,1
74,13,2,0,0,0,2.92,1,3
74,14,2,1,0,0,2.04,1,4
74,15,2,1,0,1,2.64,0,4
74,16,2,1,1,1,2.49,1,2
74,17,2,1,1,0,2.73,0,2
74,18,2,1,1,1,1.7,1,2
74,19,2,1,0,1,2.88,0,4
74,20,2,1,1,0,4.16,0,2
74,21,2,1,1,1,1.98,1,2
74,22,2,0,1,0,4.18,0,1
74,23,2,0,0,1,3.28,0,3
74,24,2,0,0,1,3.06,0,3
74,25,2,0,0,1,2.03,0,3
74,26,2,1,0,1,2.4,0,4
74,27,2,0,1,1,4.09,1,1
74,28,2,1,1,1,2.92,1,2
74,29,2,1,1,0,2.49,0,2
74,30,2,0,0,1,2.02,0,3
74,31,2,1,1,1,5.18,1,2
74,32,2,0,0,1,4.28,0,3
74,33,2,0,1,1,2.67,1,1
74,34,2,0,1,1,2.97,1,1
74,35,2,1,1,1,3.21,1,2
74,36,2,0,1,1,2.4,1,1
74,37,2,0,1,0,2.96,0,1
74,38,2,0,1,1,3.78,1,1
74,39,2,0,1,1,3.15,1,1
74,40,2,1,0,1,2.18,0,4
74,41,2,1,0,1,2.64,0,4
74,42,2,0,1,1,2.13,1,1
74,43,2,1,0,1,2.04,0,4
74,44,2,0,1,1,2.97,1,1
74,45,2,1,0,1,2.85,0,4
74,46,2,0,1,1,2.89,1,1
74,47,2,0,0,1,2.17,0,3
74,48,2,1,1,1,1.74,1,2
74,49,2,1,0,0,1.93,1,4
74,50,2,1,0,1,3.35,0,4
74,51,2,0,0,0,4.71,1,3
74,52,2,0,0,0,2.31,1,3
74,53,2,1,1,1,3.61,1,2
74,54,2,0,0,1,5.89,0,3
74,55,2,0,0,0,2.98,1,3
74,56,2,1,0,1,4.36,0,4
74,57,2,0,0,1,2.21,0,3
74,58,2,1,1,1,5.13,1,2
74,59,2,1,0,1,2.27,0,4
74,60,2,0,1,1,3.95,1,1
75,1,2,1,1,0,2.36,0,2
75,2,2,1,1,1,2.5,1,2
75,3,2,1,0,0,2.29,1,4
75,4,2,0,1,0,2.86,0,1
75,5,2,0,0,1,2.78,0,3
75,6,2,0,1,0,2.55,0,1
75,7,2,1,0,1,2.49,0,4
75,8,2,1,1,0,3.14,0,2
75,9,2,1,1,0,2.43,0,2
75,10,2,0,0,0,3.43,1,3
75,11,2,1,0,1,3.1,0,4
75,12,2,1,1,1,3.89,1,2
75,13,2,1,0,0,2.51,1,4
75,14,2,0,1,1,2.74,1,1
75,15,2,0,1,1,2.58,1,1
75,17,2,1,0,0,3.08,1,4
75,18,2,1,1,0,2.14,0,2
75,19,2,0,0,0,2.68,1,3
75,20,2,0,0,1,3.33,0,3
75,21,2,1,0,1,3.18,0,4
75,22,2,0,1,1,2.42,1,1
75,23,2,1,1,0,3.16,0,2
75,24,2,1,0,0,2.67,1,4
75,25,2,0,0,0,2.64,1,3
75,26,2,0,0,0,1.85,1,3
75,27,2,0,0,1,2.13,0,3
75,28,2,0,0,1,4.39,0,3
75,29,2,1,1,1,2.45,1,2
75,30,2,0,1,0,2.42,0,1
75,31,2,1,0,0,2.42,1,4
75,32,2,1,1,1,3.07,1,2
75,33,2,0,0,0,2.8,1,3
75,34,2,0,0,1,3.06,0,3
75,35,2,0,1,1,3.3,1,1
75,36,2,1,0,0,3.38,1,4
75,37,2,1,0,1,3.33,0,4
75,38,2,1,1,1,3.1,1,2
75,39,2,1,0,0,2.92,1,4
75,40,2,0,0,0,2.25,1,3
75,41,2,0,1,1,2.55,1,1
75,42,2,0,0,1,2.39,0,3
75,43,2,1,1,1,3.29,1,2
75,44,2,0,1,0,3.05,0,1
75,45,2,1,0,1,3.4,0,4
75,46,2,1,1,1,2.56,1,2
75,47,2,0,0,0,3.23,1,3
75,48,2,1,0,0,3.65,1,4
75,49,2,0,1,0,3.38,0,1
75,50,2,0,1,1,2.68,1,1
75,51,2,1,0,0,3.06,1,4
75,52,2,0,0,0,2.96,1,3
75,53,2,0,1,1,2.05,1,1
75,54,2,0,1,0,2.69,0,1
75,55,2,1,0,1,2.63,0,4
75,56,2,0,1,0,2.87,0,1
75,57,2,1,1,0,3.18,0,2
75,58,2,1,1,1,2.57,1,2
75,59,2,0,1,1,3.4,1,1
75,60,2,1,1,1,3.36,1,2
