id,trial,session,stim_type,correct_resp,resp,rt,correct
1,1,1,1,1,0,6.15,0
1,2,1,0,1,1,4.47,1
1,3,1,0,0,0,5.95,1
1,4,1,0,1,0,4.63,0
1,5,1,1,1,0,4.46,0
1,6,1,0,0,0,4.71,1
1,7,1,1,1,1,8.1,1
1,8,1,1,1,1,3.52,1
1,9,1,1,0,1,3.27,0
1,10,1,1,0,1,5.91,0
1,11,1,1,0,0,4.12,1
1,12,1,1,0,1,4.52,0
1,13,1,0,1,0,7.97,0
1,14,1,1,1,1,4.81,1
1,15,1,0,0,0,5.85,1
1,16,1,1,1,1,3.88,1
1,17,1,1,1,1,3.66,1
1,18,1,0,0,0,6.94,1
1,19,1,0,1,0,5.52,0
1,20,1,0,0,1,3.92,0
1,21,1,0,1,1,4.97,1
1,22,1,1,0,1,6.02,0
1,23,1,0,0,0,8.06,1
1,24,1,1,0,1,6.88,0
1,25,1,1,1,0,5.85,0
1,26,1,0,1,1,4.83,1
1,27,1,1,0,1,4.33,0
1,28,1,0,0,0,6.86,1
1,29,1,1,0,0,3.85,1
1,30,1,0,1,0,8.36,0
1,31,1,0,0,1,8.06,0
1,32,1,1,1,1,2.37,1
1,33,1,0,1,0,4.81,0
1,34,1,1,0,0,2.71,1
1,35,1,0,1,0,2.63,0
1,36,1,1,0,0,4.39,1
1,37,1,1,1,0,5.4,0
1,38,1,0,0,1,6.92,0
1,39,1,0,1,0,4.63,0
1,40,1,0,0,1,8.75,0
1,41,1,1,0,0,3.49,1
1,42,1,1,0,1,3.35,0
1,43,1,0,0,0,4.82,1
1,45,1,1,0,1,2.56,0
1,46,1,0,0,0,5.32,1
1,47,1,0,1,1,7.71,1
1,48,1,1,1,1,2.69,1
1,49,1,1,1,1,2.46,1
1,50,1,1,0,1,3.2,0
1,51,1,1,1,1,6.36,1
1,52,1,1,0,1,3,0
1,53,1,0,1,1,4.4,1
1,54,1,0,1,1,3.69,1
1,55,1,0,0,1,4.2,0
1,56,1,1,1,1,6.16,1
1,57,1,0,0,0,7.68,1
1,59,1,1,1,1,3,1
1,60,1,0,1,1,3.02,1
2,1,1,0,0,1,4,0
2,2,1,0,1,1,3.69,1
2,3,1,1,0,0,4.44,1
2,4,1,0,1,1,2.23,1
2,5,1,0,1,0,3.79,0
2,6,1,0,0,1,2.55,0
2,7,1,1,0,1,2.94,0
2,8,1,1,0,1,3.18,0
2,9,1,0,0,0,2.65,1
2,10,1,1,1,1,2.26,1
2,11,1,1,1,1,2.35,1
2,12,1,0,0,1,3.02,0
2,13,1,0,1,0,3.61,0
2,14,1,1,1,1,2.67,1
2,15,1,0,1,0,2.82,0
2,16,1,1,0,1,1.66,0
2,17,1,1,1,1,2.6,1
2,18,1,1,1,1,3.57,1
2,19,1,1,1,0,2.7,0
2,20,1,0,1,0,2.91,0
2,21,1,0,0,1,2.88,0
2,22,1,0,0,1,2.42,0
2,23,1,0,1,1,3.45,1
2,24,1,1,0,0,3.53,1
2,25,1,0,0,1,4.48,0
2,26,1,1,1,1,3.17,1
2,27,1,1,1,0,3.04,0
2,28,1,0,0,1,4.56,0
2,29,1,0,0,1,2.6,0
2,30,1,0,0,0,3.89,1
2,31,1,1,1,1,2.3,1
2,32,1,1,0,1,3.33,0
2,33,1,1,0,1,2.1,0
2,34,1,1,0,1,1.85,0
2,35,1,0,0,1,3.48,0
2,36,1,1,1,1,4.49,1
2,38,1,1,0,1,1.91,0
2,39,1,0,1,0,4.57,0
2,40,1,1,0,1,3.4,0
2,41,1,1,0,1,1.57,0
2,42,1,0,1,0,3.53,0
2,43,1,1,1,0,4.9,0
2,44,1,0,0,0,4.25,1
2,45,1,0,1,1,2.21,1
2,46,1,1,1,1,2.83,1
2,47,1,1,0,1,1.75,0
2,48,1,1,1,0,5.06,0
2,49,1,1,1,0,4.44,0
2,50,1,0,0,0,4.63,1
2,52,1,0,1,0,3.08,0
2,53,1,1,1,1,3.89,1
2,54,1,0,1,1,2.91,1
2,55,1,0,0,1,2.01,0
2,56,1,0,0,1,3.01,0
2,57,1,0,1,0,3.99,0
2,58,1,0,1,1,3.55,1
2,59,1,1,0,0,3.08,1
2,60,1,1,0,1,1.65,0
3,1,1,1,1,1,2.21,1
3,2,1,0,1,0,3,0
3,3,1,1,1,1,2.77,1
3,4,1,0,1,0,3.57,0
3,5,1,0,1,1,5.78,1
3,6,1,0,1,0,3.76,0
3,7,1,0,1,1,4.22,1
3,8,1,0,0,1,2.88,0
3,9,1,1,0,1,2.17,0
3,10,1,0,1,1,3.1,1
3,11,1,1,0,1,2.3,0
3,12,1,1,0,1,4.16,0
3,13,1,1,1,1,2.81,1
3,14,1,0,1,0,3.07,0
3,15,1,1,0,1,2.66,0
3,16,1,0,0,0,2.59,1
3,17,1,1,0,1,2.44,0
3,18,1,0,1,0,3.75,0
3,19,1,1,1,1,4.12,1
3,20,1,1,0,1,5.98,0
3,21,1,0,1,0,5.88,0
3,22,1,1,1,1,3.91,1
3,23,1,1,0,1,2.88,0
3,24,1,0,0,1,4.39,0
3,25,1,1,1,1,2.64,1
3,26,1,0,0,1,5.68,0
3,27,1,1,1,1,1.93,1
3,28,1,0,0,1,3.15,0
3,29,1,1,0,1,6.75,0
3,30,1,0,0,0,3.13,1
3,31,1,1,0,1,2.45,0
3,32,1,0,1,0,2.92,0
3,34,1,0,0,1,3.09,0
3,36,1,1,1,1,1.96,1
3,37,1,1,0,0,2.99,1
3,38,1,0,1,1,4.65,1
3,39,1,0,0,0,3.39,1
3,40,1,1,1,1,1.96,1
3,41,1,0,1,0,5.77,0
3,42,1,0,0,0,3.5,1
3,43,1,1,1,1,3.3,1
3,45,1,0,1,0,3.23,0
3,46,1,1,0,1,2.58,0
3,47,1,0,1,0,3.31,0
3,48,1,0,0,1,3.56,0
3,49,1,1,1,1,3.15,1
3,50,1,0,0,0,6.05,1
3,51,1,0,0,1,2.74,0
3,52,1,1,1,1,2.23,1
3,53,1,1,1,1,2.6,1
3,54,1,1,0,1,5.16,0
3,55,1,1,1,1,2.29,1
3,56,1,0,0,0,2.98,1
3,57,1,0,0,1,3.38,0
3,58,1,1,0,1,2.02,0
3,59,1,1,1,1,2.03,1
3,60,1,0,1,0,3.35,0
4,1,1,0,1,1,6.61,1
4,2,1,0,1,1,3.21,1
4,3,1,1,1,1,3.04,1
4,4,1,0,0,1,3.15,0
4,5,1,1,0,1,3.39,0
4,6,1,0,0,1,2.67,0
4,7,1,1,0,1,3.37,0
4,8,1,1,0,1,3.82,0
4,9,1,0,1,1,2.49,1
4,10,1,0,1,1,5.41,1
4,11,1,0,0,1,3.26,0
4,12,1,1,1,1,2.35,1
4,13,1,0,1,1,7.05,1
4,14,1,1,1,1,2.45,1
4,15,1,1,1,1,3.5,1
4,16,1,1,0,1,4.59,0
4,17,1,0,0,0,5.29,1
4,18,1,0,1,1,2.87,1
4,19,1,1,1,1,2.1,1
4,20,1,0,0,0,4.87,1
4,21,1,0,1,1,1.7,1
4,22,1,1,0,1,2.23,0
4,23,1,0,1,1,2,1
4,24,1,0,0,1,3.6,0
4,25,1,1,1,1,2.8,1
4,26,1,1,0,1,2.89,0
4,27,1,1,0,1,2.37,0
4,29,1,0,0,1,3.32,0
4,30,1,1,1,1,2.62,1
4,31,1,1,1,1,3.12,1
4,32,1,1,1,1,2.1,1
4,33,1,1,1,1,1.67,1
4,35,1,1,0,1,3.35,0
4,36,1,1,1,0,4.9,0
4,37,1,0,0,1,3.37,0
4,38,1,1,0,1,2.53,0
4,39,1,0,0,1,4.12,0
4,40,1,1,1,1,2.41,1
4,41,1,0,1,1,3.2,1
4,43,1,0,1,0,3.15,0
4,44,1,0,0,0,3.04,1
4,45,1,0,0,1,3.55,0
4,46,1,0,0,1,4.88,0
4,48,1,1,0,1,3.23,0
4,49,1,0,0,1,3.21,0
4,50,1,1,1,1,5.27,1
4,51,1,0,1,1,2.27,1
4,52,1,1,0,1,2.5,0
4,53,1,1,1,1,1.83,1
4,54,1,1,1,0,4.8,0
4,55,1,0,1,1,5.28,1
4,56,1,0,1,1,3.17,1
4,57,1,0,0,1,3.82,0
4,58,1,1,0,0,3.12,1
4,59,1,1,0,1,2.8,0
5,1,1,0,1,1,5.98,1
5,2,1,0,0,0,5.92,1
5,3,1,0,1,0,4.8,0
5,4,1,1,1,1,9.47,1
5,5,1,0,0,0,5.87,1
5,6,1,0,1,0,5.13,0
5,7,1,1,1,1,4.84,1
5,8,1,0,0,0,8.64,1
5,9,1,0,0,1,5.12,0
5,10,1,0,1,0,8.67,0
5,11,1,1,0,1,4.07,0
5,12,1,1,1,1,4.17,1
5,13,1,1,0,1,4.65,0
5,14,1,0,1,1,5.26,1
5,15,1,1,1,0,6.41,0
5,16,1,1,0,0,4.24,1
5,17,1,1,1,0,6.57,0
5,18,1,1,1,1,4.21,1
5,19,1,1,0,1,4.83,0
5,20,1,1,1,1,6.56,1
5,21,1,1,0,1,8.55,0
5,23,1,0,0,1,9.05,0
5,24,1,1,0,1,4.08,0
5,25,1,0,1,0,4.62,0
5,27,1,0,1,1,5.8,1
5,28,1,0,1,1,4.06,1
5,29,1,1,0,1,2.75,0
5,30,1,0,1,0,6.81,0
5,31,1,1,0,1,5.59,0
5,32,1,0,0,0,8.77,1
5,34,1,0,0,0,5.71,1
5,35,1,1,1,1,3.32,1
5,36,1,0,0,1,4.84,0
5,37,1,0,1,1,6.05,1
5,38,1,0,0,0,5.83,1
5,39,1,1,1,1,3.32,1
5,40,1,1,1,1,4.18,1
5,41,1,0,1,0,6.15,0
5,42,1,1,1,1,3.17,1
5,43,1,1,0,1,4.07,0
5,45,1,1,0,1,3.79,0
5,48,1,0,0,1,3.66,0
5,49,1,0,0,0,4.42,1
5,50,1,1,0,1,3.08,0
5,51,1,1,1,0,4.1,0
5,52,1,0,1,1,8.38,1
5,53,1,0,0,1,3.53,0
5,54,1,1,0,1,8.37,0
5,55,1,1,0,1,3.27,0
5,57,1,0,0,1,5.24,0
5,58,1,1,1,0,5.19,0
5,59,1,1,1,1,3.41,1
5,60,1,1,0,1,3.19,0
6,1,1,0,0,0,4.88,1
6,2,1,0,1,0,7.67,0
6,3,1,0,1,1,3.37,1
6,4,1,0,0,0,5.32,1
6,5,1,0,1,0,3.43,0
6,6,1,0,0,0,6.52,1
6,7,1,0,1,1,4.54,1
6,8,1,1,1,1,4.35,1
6,9,1,1,0,0,3.07,1
6,10,1,1,1,0,2.24,0
6,11,1,1,1,0,5.35,0
6,12,1,0,1,0,5.92,0
6,13,1,1,1,1,4.75,1
6,14,1,0,1,1,3.18,1
6,15,1,1,1,1,1.88,1
6,16,1,1,0,0,4.4,1
6,17,1,0,0,1,4.95,0
6,18,1,0,0,0,4.06,1
6,19,1,1,0,1,5.31,0
6,20,1,0,0,1,6.67,0
6,21,1,0,0,1,5.41,0
6,22,1,1,0,0,4.8,1
6,23,1,1,0,0,6.32,1
6,24,1,1,0,0,2.67,1
6,25,1,1,1,1,4.58,1
6,26,1,1,1,0,8.72,0
6,27,1,1,0,1,3.08,0
6,28,1,0,1,0,7.79,0
6,29,1,1,0,1,5.17,0
6,30,1,1,1,1,5.1,1
6,31,1,1,1,0,2.43,0
6,32,1,1,1,1,6.3,1
6,33,1,1,1,1,3.1,1
6,34,1,0,1,1,7.62,1
6,35,1,0,0,0,3.35,1
6,37,1,0,1,1,9.77,1
6,38,1,0,1,0,9.59,0
6,39,1,0,1,1,6.24,1
6,40,1,1,1,1,8.71,1
6,41,1,0,1,0,9.18,0
6,42,1,1,0,0,3.5,1
6,43,1,1,0,1,3.93,0
6,44,1,0,0,0,9.05,1
6,45,1,0,1,1,4.05,1
6,47,1,1,0,1,6.83,0
6,48,1,1,1,0,4.41,0
6,49,1,1,1,0,2.34,0
6,50,1,0,0,1,8.19,0
6,51,1,0,0,1,4.79,0
6,52,1,0,0,1,6.72,0
6,53,1,1,0,1,4.02,0
6,55,1,0,0,1,3.47,0
6,56,1,0,1,0,7.02,0
6,57,1,1,0,1,3.63,0
6,58,1,0,0,1,3.93,0
6,59,1,1,1,1,3.04,1
6,60,1,1,0,1,6.96,0
7,1,1,0,0,0,2.18,1
7,3,1,0,1,1,3.57,1
7,4,1,1,0,0,2.66,1
7,5,1,0,1,0,3.02,0
7,6,1,0,0,0,3.57,1
7,7,1,0,1,1,3.33,1
7,8,1,1,0,0,3.56,1
7,9,1,0,1,1,2.68,1
7,10,1,1,1,1,2.83,1
7,11,1,0,1,0,4.63,0
7,12,1,0,1,1,3.63,1
7,13,1,0,0,1,3.72,0
7,14,1,1,1,0,3.26,0
7,15,1,1,1,0,5.75,0
7,16,1,1,1,1,4.85,1
7,17,1,0,0,0,3.65,1
7,18,1,1,0,0,2.57,1
7,19,1,0,0,0,2.42,1
7,20,1,1,0,1,3.15,0
7,21,1,0,1,0,4.98,0
7,22,1,1,1,1,4.73,1
7,23,1,1,1,1,2.9,1
7,24,1,1,0,0,3.5,1
7,25,1,1,1,1,4.05,1
7,26,1,1,0,1,5.08,0
7,27,1,1,1,1,4.95,1
7,28,1,0,0,0,4.23,1
7,29,1,0,0,1,3.15,0
7,30,1,0,0,0,5.59,1
7,31,1,0,0,0,3.65,1
7,32,1,1,0,0,2.88,1
7,33,1,1,0,1,5.23,0
7,34,1,0,1,1,3.4,1
7,35,1,0,0,1,4.38,0
7,36,1,1,0,1,3.38,0
7,37,1,1,1,1,3.69,1
7,38,1,0,0,1,4.33,0
7,39,1,0,1,1,3.29,1
7,40,1,1,0,1,4.07,0
7,41,1,0,1,0,3.41,0
7,42,1,1,0,0,3.96,1
7,43,1,1,1,1,2.51,1
7,44,1,1,0,0,3.96,1
7,45,1,1,1,0,2.73,0
7,46,1,1,1,0,4.99,0
7,47,1,1,0,1,4.22,0
7,48,1,1,1,1,2.37,1
7,49,1,0,1,1,3.33,1
7,50,1,0,0,1,2.65,0
7,51,1,0,0,0,2.76,1
7,52,1,0,1,0,3.23,0
7,53,1,0,1,1,3.47,1
7,54,1,1,0,1,2.67,0
7,55,1,1,0,1,3.1,0
7,56,1,1,1,1,3.62,1
7,57,1,0,1,1,2.63,1
7,58,1,1,1,1,2.43,1
7,59,1,0,0,1,4.3,0
7,60,1,0,0,0,3.72,1
8,1,1,0,1,1,2.56,1
8,2,1,0,0,0,2.89,1
8,3,1,1,0,1,2.37,0
8,4,1,0,0,1,1.6,0
8,5,1,1,0,1,3.7,0
8,6,1,1,1,1,1.58,1
8,7,1,0,0,0,2.87,1
8,8,1,1,1,1,1.54,1
8,9,1,1,0,1,2.42,0
8,10,1,0,1,1,2.67,1
8,11,1,1,1,1,1.87,1
8,12,1,0,1,1,1.57,1
8,13,1,1,0,1,1.63,0
8,14,1,0,0,1,1.97,0
8,15,1,0,0,1,2.32,0
8,17,1,1,0,1,2.17,0
8,18,1,1,1,1,3.51,1
8,19,1,0,0,1,4.62,0
8,20,1,0,1,1,2.25,1
8,21,1,0,1,1,1.56,1
8,22,1,1,0,1,2.52,0
8,23,1,0,0,1,3.13,0
8,24,1,1,0,1,1.67,0
8,25,1,1,1,1,1.88,1
8,26,1,1,1,1,2.77,1
8,27,1,1,1,1,4.03,1
8,28,1,0,1,1,2.3,1
8,29,1,0,1,0,2.49,0
8,30,1,1,0,1,1.69,0
8,31,1,0,1,1,4.51,1
8,32,1,0,0,1,2.63,0
8,33,1,1,1,1,2.48,1
8,34,1,0,1,1,2.05,1
8,35,1,1,1,1,1.55,1
8,36,1,1,1,0,3.3,0
8,37,1,1,0,1,4.79,0
8,38,1,1,0,0,3.57,1
8,39,1,0,1,1,1.48,1
8,40,1,0,0,0,3,1
8,41,1,0,0,1,2.59,0
8,42,1,1,1,1,2.65,1
8,43,1,0,0,1,3.22,0
8,44,1,1,0,1,4.01,0
8,45,1,1,0,0,4.06,1
8,46,1,0,0,1,3.99,0
8,47,1,1,1,0,6.59,0
8,48,1,1,0,1,2.04,0
8,49,1,1,0,1,2.49,0
8,50,1,0,1,0,4.24,0
8,51,1,1,1,1,2.1,1
8,52,1,0,1,1,4.33,1
8,53,1,0,1,1,2.61,1
8,54,1,1,1,0,2.13,0
8,55,1,0,1,0,3.18,0
8,56,1,0,0,1,1.73,0
8,57,1,0,0,1,1.77,0
8,58,1,1,1,1,1.51,1
8,59,1,0,0,1,2.76,0
8,60,1,0,1,0,2.58,0
9,1,1,0,0,0,3.45,1
9,2,1,1,1,0,2.6,0
9,3,1,0,1,0,3.47,0
9,4,1,1,1,1,2.72,1
9,5,1,0,1,0,4.6,0
9,6,1,1,0,0,4.24,1
9,7,1,1,1,1,5.09,1
9,8,1,0,1,1,3.35,1
9,9,1,0,0,1,4.3,0
9,11,1,0,0,0,6.1,1
9,12,1,1,0,0,4.64,1
9,13,1,0,1,0,4.32,0
9,14,1,1,0,1,3.72,0
9,15,1,0,1,0,3.95,0
9,16,1,1,0,1,2.58,0
9,17,1,1,0,0,5.68,1
9,18,1,0,1,1,3.9,1
9,19,1,0,0,1,4.12,0
9,20,1,0,1,0,4.64,0
9,21,1,0,1,0,3.26,0
9,22,1,1,0,1,2.71,0
9,23,1,1,0,0,2.25,1
9,24,1,1,0,1,2.37,0
9,25,1,1,0,1,3.05,0
9,26,1,0,0,1,3.51,0
9,27,1,0,1,1,4.59,1
9,28,1,1,0,1,5.31,0
9,29,1,0,0,1,3.94,0
9,30,1,1,0,1,3.58,0
9,31,1,1,1,1,3.1,1
9,33,1,0,1,1,4.6,1
9,34,1,1,0,0,4.09,1
9,35,1,1,1,1,3.58,1
9,36,1,0,1,1,3.91,1
9,37,1,0,1,1,4.22,1
9,38,1,1,0,1,6.99,0
9,39,1,1,1,0,4.82,0
9,40,1,1,1,1,2.9,1
9,41,1,0,0,0,3.05,1
9,42,1,1,1,1,2.39,1
9,43,1,0,1,1,4.17,1
9,44,1,0,0,1,2.92,0
9,45,1,0,0,1,2.88,0
9,46,1,0,0,1,5.79,0
9,47,1,0,0,1,2.59,0
9,48,1,1,1,1,2.21,1
9,50,1,1,1,0,4.85,0
9,51,1,0,1,1,3.85,1
9,52,1,1,1,0,2.59,0
9,53,1,1,0,1,3.09,0
9,54,1,1,1,1,2.26,1
9,55,1,0,0,1,3.1,0
9,56,1,1,1,1,1.77,1
9,57,1,1,0,1,2.52,0
9,58,1,0,1,1,3.33,1
9,59,1,0,0,0,3.16,1
9,60,1,0,0,0,3.51,1
10,1,1,0,1,0,3.24,0
10,2,1,1,1,1,3.47,1
10,3,1,1,0,1,3.3,0
10,4,1,0,1,0,3.76,0
10,5,1,1,0,1,3.7,0
10,6,1,0,1,0,3.87,0
10,7,1,1,0,1,2.78,0
10,8,1,0,1,0,4.92,0
10,9,1,0,0,0,3.69,1
10,10,1,1,1,1,3.26,1
10,11,1,1,1,1,4.98,1
10,12,1,0,1,1,4.9,1
10,13,1,0,0,1,3.92,0
10,14,1,0,1,1,4.08,1
10,15,1,0,1,0,3.17,0
10,16,1,1,0,1,3.2,0
10,17,1,0,0,0,4.5,1
10,18,1,0,1,1,3.83,1
10,19,1,1,0,1,3.73,0
10,20,1,1,0,1,3.67,0
10,21,1,0,1,0,3.8,0
10,22,1,1,0,0,2.6,1
10,23,1,0,0,0,4.87,1
10,24,1,1,1,1,4.3,1
10,25,1,1,1,1,2.37,1
10,26,1,1,0,1,3.01,0
10,27,1,0,1,0,3.11,0
10,28,1,1,1,1,4.19,1
10,29,1,1,0,1,2.35,0
10,30,1,0,1,0,4.72,0
10,31,1,0,0,1,3.23,0
10,32,1,1,0,1,3.37,0
10,33,1,1,0,0,4.47,1
10,34,1,0,0,0,4.67,1
10,35,1,0,0,1,3.91,0
10,36,1,0,0,1,4.21,0
10,37,1,1,1,0,3.42,0
10,38,1,0,1,0,2.62,0
10,39,1,1,0,1,4.94,0
10,40,1,1,1,0,2.97,0
10,41,1,1,1,1,2.08,1
10,42,1,0,0,1,4.59,0
10,43,1,0,0,1,3.25,0
10,44,1,1,1,1,3.42,1
10,45,1,1,0,1,3.74,0
10,46,1,1,0,1,2.62,0
10,47,1,0,0,1,4.56,0
10,48,1,0,0,0,3.07,1
10,49,1,0,1,1,3.19,1
10,50,1,1,0,1,2.4,0
10,51,1,0,0,1,4.23,0
10,52,1,1,1,1,2.96,1
10,53,1,1,1,1,3.6,1
10,55,1,1,1,1,2.9,1
10,56,1,0,1,0,3.78,0
10,57,1,0,1,0,3.44,0
10,58,1,1,1,1,3.26,1
10,59,1,0,0,0,3.68,1
10,60,1,0,0,1,3.35,0
11,2,1,0,0,0,8.62,1
11,3,1,0,0,1,9.57,0
11,4,1,1,1,1,4.72,1
11,5,1,0,0,1,8.4,0
11,6,1,0,0,0,9.93,1
11,7,1,0,1,1,9.3,1
11,8,1,0,1,1,5.15,1
11,9,1,0,1,1,8.51,1
11,10,1,1,1,1,6.7,1
11,11,1,1,0,1,7.91,0
11,12,1,0,0,1,4.7,0
11,13,1,1,0,1,4.38,0
11,14,1,1,1,1,4.32,1
11,15,1,0,0,1,9.35,0
11,17,1,0,1,0,7.72,0
11,19,1,0,0,1,7.14,0
11,20,1,0,1,1,7.93,1
11,21,1,1,1,1,6.05,1
11,22,1,1,1,1,4.42,1
11,23,1,0,1,1,7.8,1
11,24,1,0,1,0,7.16,0
11,25,1,1,1,0,4.69,0
11,26,1,1,0,1,4.36,0
11,27,1,1,0,1,4.54,0
11,28,1,0,1,1,4.3,1
11,29,1,1,0,1,7.72,0
11,30,1,1,1,1,6.81,1
11,32,1,1,0,0,6.37,1
11,33,1,0,0,1,5.32,0
11,34,1,0,0,1,9.62,0
11,35,1,1,1,0,4.86,0
11,36,1,0,1,1,7.3,1
11,37,1,1,0,1,5.48,0
11,38,1,0,1,1,4.36,1
11,39,1,1,0,0,2.65,1
11,40,1,1,0,1,2.92,0
11,41,1,0,0,1,8.14,0
11,42,1,1,1,0,8.43,0
11,45,1,0,0,1,7.24,0
11,46,1,1,1,1,3.03,1
11,47,1,0,1,1,9.67,1
11,48,1,1,0,1,4.18,0
11,49,1,0,1,0,6.52,0
11,50,1,1,1,1,5.03,1
11,51,1,1,1,0,4.11,0
11,52,1,1,0,1,2.44,0
11,53,1,1,0,1,4.8,0
11,54,1,1,1,1,2.38,1
11,55,1,1,1,1,4.51,1
11,56,1,0,0,1,5.86,0
11,57,1,1,0,0,7.05,1
11,58,1,0,1,0,7.63,0
11,60,1,1,1,1,4.73,1
12,1,1,1,0,1,3.26,0
12,2,1,1,0,1,6.68,0
12,3,1,1,0,0,8.07,1
12,4,1,0,1,0,5.36,0
12,5,1,0,1,1,9.38,1
12,6,1,1,1,0,4.65,0
12,7,1,1,0,1,3.42,0
12,8,1,1,1,0,9.03,0
12,9,1,0,1,0,6.2,0
12,10,1,0,0,1,3.38,0
12,11,1,1,1,1,4.18,1
12,12,1,1,0,1,8.49,0
12,14,1,0,1,0,3.9,0
12,15,1,0,1,1,7.38,1
12,16,1,0,0,0,4.33,1
12,17,1,0,0,0,7.81,1
12,18,1,0,1,0,7.35,0
12,19,1,1,0,0,5.35,1
12,20,1,1,0,1,3.52,0
12,21,1,1,0,1,6.67,0
12,23,1,1,1,1,4.79,1
12,24,1,0,0,1,5.9,0
12,25,1,0,0,0,3.62,1
12,26,1,0,1,0,6.61,0
12,27,1,1,1,1,3.91,1
12,29,1,1,1,1,6.55,1
12,30,1,0,0,0,7.32,1
12,31,1,1,0,1,4.03,0
12,32,1,0,0,0,4.13,1
12,33,1,1,1,1,5.77,1
12,35,1,0,1,0,8.39,0
12,38,1,1,1,1,6.12,1
12,39,1,0,0,1,6.5,0
12,40,1,1,1,0,6,0
12,41,1,0,1,1,6.28,1
12,42,1,0,1,0,6.36,0
12,44,1,1,0,0,4.03,1
12,45,1,0,0,1,4.02,0
12,47,1,1,0,1,7.06,0
12,48,1,0,0,1,4.7,0
12,50,1,0,1,0,7.86,0
12,51,1,0,0,1,5.48,0
12,52,1,0,1,1,9.03,1
12,53,1,1,0,0,6.33,1
12,54,1,0,1,1,4.39,1
12,55,1,1,1,1,5.55,1
12,56,1,1,1,1,4.58,1
12,59,1,1,0,0,3.57,1
13,1,1,0,1,1,5.24,1
13,2,1,1,1,1,4.68,1
13,3,1,1,0,1,3.94,0
13,4,1,1,1,1,3.2,1
13,5,1,0,0,1,2.87,0
13,6,1,0,1,0,6.08,0
13,7,1,1,1,1,3.11,1
13,8,1,0,1,0,3.84,0
13,9,1,0,0,0,4.06,1
13,10,1,1,0,1,6.07,0
13,11,1,0,0,1,5.11,0
13,12,1,0,1,1,4.36,1
13,13,1,1,1,1,3.72,1
13,14,1,0,0,1,4.43,0
13,15,1,1,0,0,3.2,1
13,16,1,0,0,0,6.24,1
13,17,1,1,0,1,3.68,0
13,18,1,0,0,1,5.74,0
13,19,1,0,1,1,2.8,1
13,20,1,1,1,1,2.54,1
13,21,1,0,1,1,4.21,1
13,22,1,0,1,0,4.07,0
13,23,1,0,0,1,3.47,0
13,24,1,0,0,1,3.69,0
13,25,1,0,0,0,4.7,1
13,26,1,1,0,1,2.83,0
13,27,1,1,0,1,4.45,0
13,28,1,1,1,1,2.42,1
13,29,1,0,0,0,2.94,1
13,30,1,0,0,1,2.93,0
13,31,1,0,0,1,6.99,0
13,32,1,1,1,1,3.82,1
13,33,1,1,1,1,3.08,1
13,34,1,1,1,1,4.09,1
13,35,1,1,0,1,2.75,0
13,36,1,1,0,1,3.11,0
13,37,1,1,0,0,3.43,1
13,38,1,1,1,1,2.64,1
13,39,1,1,0,0,2.84,1
13,40,1,0,1,1,4.97,1
13,41,1,1,0,1,3.65,0
13,42,1,1,1,0,3.94,0
13,43,1,1,0,1,3.3,0
13,44,1,0,1,0,3.45,0
13,45,1,1,1,1,3.01,1
13,46,1,1,0,1,2.23,0
13,47,1,0,0,0,6.7,1
13,48,1,1,0,1,2.55,0
13,49,1,0,1,1,5.08,1
13,50,1,1,0,1,2.23,0
13,51,1,0,1,0,3.25,0
13,52,1,0,0,1,3.69,0
13,53,1,0,1,0,4.58,0
13,54,1,0,1,1,5.4,1
13,55,1,1,1,1,2.4,1
13,56,1,0,1,1,3.83,1
13,57,1,0,1,1,2.74,1
13,58,1,1,1,1,3.43,1
13,60,1,0,0,1,4.62,0
14,1,1,1,1,1,2.73,1
14,2,1,1,1,0,4.15,0
14,3,1,1,0,1,3.14,0
14,4,1,0,0,1,4.08,0
14,5,1,1,1,1,2.49,1
14,6,1,0,1,0,4.13,0
14,7,1,0,0,1,4.34,0
14,8,1,0,0,1,2.69,0
14,9,1,0,0,0,4.11,1
14,10,1,1,1,1,2.75,1
14,11,1,0,1,1,3.87,1
14,12,1,0,0,1,3.8,0
14,13,1,1,0,1,2.67,0
14,14,1,1,1,1,2.98,1
14,15,1,1,0,1,3.74,0
14,16,1,1,0,1,3.05,0
14,17,1,1,0,1,3.08,0
14,18,1,1,1,1,3.65,1
14,19,1,1,0,1,3.58,0
14,20,1,1,0,0,4.17,1
14,21,1,0,1,1,4.32,1
14,22,1,1,1,1,4.2,1
14,23,1,0,0,1,4.15,0
14,24,1,0,1,1,3.92,1
14,25,1,0,1,1,5.05,1
14,26,1,0,1,0,4.57,0
14,27,1,0,1,0,4.46,0
14,28,1,0,0,1,4.41,0
14,29,1,1,0,1,3.24,0
14,30,1,1,1,1,3.8,1
14,31,1,0,1,1,3.35,1
14,32,1,1,0,0,3.49,1
14,33,1,0,0,1,2.14,0
14,34,1,0,1,1,3.11,1
14,35,1,0,1,1,6,1
14,36,1,0,1,0,4.28,0
14,37,1,0,0,1,3.52,0
14,38,1,0,1,0,5.78,0
14,39,1,0,1,1,5.46,1
14,40,1,1,1,1,5.55,1
14,41,1,1,1,1,2.56,1
14,42,1,1,0,1,2.66,0
14,43,1,1,0,1,6.02,0
14,44,1,0,0,1,3.22,0
14,45,1,0,0,1,4.55,0
14,46,1,0,0,0,4.65,1
14,47,1,1,1,1,4.35,1
14,49,1,0,0,1,4.96,0
14,50,1,1,0,1,2.97,0
14,51,1,0,0,0,2.3,1
14,52,1,1,1,1,3.89,1
14,53,1,1,1,1,5.43,1
14,54,1,1,0,1,2.9,0
14,55,1,1,1,1,3.98,1
14,56,1,1,0,1,2.53,0
14,57,1,0,1,1,3.52,1
14,58,1,0,0,0,5.01,1
14,59,1,0,1,1,2.77,1
14,60,1,1,1,0,5.88,0
15,1,1,0,0,0,3.54,1
15,2,1,0,0,1,3.34,0
15,3,1,0,1,1,4.43,1
15,4,1,1,1,1,5.53,1
15,5,1,0,1,1,3.48,1
15,6,1,0,1,0,2.75,0
15,7,1,0,1,1,5.27,1
15,8,1,1,1,0,6.9,0
15,9,1,0,0,1,6.13,0
15,10,1,1,0,0,6.42,1
15,11,1,1,0,1,2.77,0
15,12,1,1,0,0,3.75,1
15,14,1,0,1,1,6.1,1
15,15,1,0,1,0,4.04,0
15,16,1,1,1,1,2.85,1
15,17,1,0,0,0,3.62,1
15,18,1,1,1,1,4.5,1
15,19,1,0,0,0,5.38,1
15,20,1,0,1,0,5.85,0
15,21,1,0,1,0,6.83,0
15,22,1,1,1,0,5.4,0
15,23,1,1,1,1,4.13,1
15,24,1,1,0,0,4.55,1
15,25,1,1,0,0,4.76,1
15,26,1,0,1,0,3.77,0
15,27,1,1,0,1,2.75,0
15,28,1,0,0,1,4.33,0
15,29,1,1,1,0,3.68,0
15,30,1,1,1,0,5.4,0
15,31,1,0,1,1,3.96,1
15,32,1,0,0,0,5.23,1
15,33,1,0,0,0,3.94,1
15,34,1,1,0,0,6.9,1
15,35,1,0,1,0,4.1,0
15,36,1,1,1,0,4.26,0
15,37,1,1,0,1,4.73,0
15,38,1,1,1,1,4.68,1
15,39,1,0,0,0,7.05,1
15,40,1,1,0,0,4.53,1
15,41,1,1,1,0,4.58,0
15,42,1,0,0,0,4.6,1
15,43,1,0,0,0,3.37,1
15,44,1,0,0,0,4.56,1
15,45,1,1,0,1,4.65,0
15,46,1,0,1,0,3.05,0
15,47,1,0,1,0,2.97,0
15,48,1,0,0,1,5.02,0
15,49,1,1,0,1,6.18,0
15,50,1,0,1,1,4.99,1
15,51,1,1,0,1,4.22,0
15,52,1,1,0,0,3.59,1
15,53,1,0,1,1,3.84,1
15,54,1,1,0,1,4.09,0
15,55,1,1,0,1,3.76,0
15,57,1,1,1,0,3.98,0
15,58,1,1,1,0,2.86,0
15,59,1,1,1,0,3.2,0
15,60,1,0,0,1,4.29,0
16,1,1,0,0,1,2.5,0
16,2,1,0,1,1,4.75,1
16,3,1,1,0,1,3.27,0
16,4,1,1,0,0,2.47,1
16,5,1,0,0,0,4.17,1
16,7,1,1,0,0,2.29,1
16,8,1,0,1,1,2.11,1
16,9,1,1,0,0,5.96,1
16,10,1,1,0,0,4.4,1
16,11,1,1,0,1,2.65,0
16,12,1,0,0,1,4.89,0
16,13,1,1,1,1,2.58,1
16,14,1,0,1,0,4.43,0
16,15,1,1,1,1,2.29,1
16,16,1,0,1,0,3.81,0
16,17,1,1,1,0,3.85,0
16,18,1,1,1,1,3.22,1
16,19,1,1,1,1,1.91,1
16,20,1,0,0,0,3.1,1
16,21,1,0,0,0,2.5,1
16,22,1,0,1,0,3.6,0
16,23,1,1,0,0,2.4,1
16,24,1,0,1,1,4.1,1
16,25,1,0,1,0,4.48,0
16,26,1,1,1,1,5.45,1
16,27,1,0,1,1,4.86,1
16,28,1,0,1,1,3.08,1
16,29,1,0,0,0,2.83,1
16,30,1,0,1,0,3.12,0
16,31,1,0,0,0,5.52,1
16,33,1,0,0,1,5.56,0
16,34,1,0,0,1,1.98,0
16,35,1,0,0,1,3.07,0
16,36,1,1,0,0,2.91,1
16,37,1,0,0,0,4.25,1
16,38,1,1,1,1,5.93,1
16,39,1,0,1,0,3.64,0
16,40,1,1,0,0,3.55,1
16,41,1,1,0,1,2.07,0
16,42,1,1,0,0,2.35,1
16,43,1,1,1,1,5.95,1
16,44,1,0,0,0,3.67,1
16,45,1,0,0,0,2.94,1
16,46,1,1,1,0,2.93,0
16,47,1,1,0,0,1.82,1
16,48,1,1,1,0,3.4,0
16,49,1,1,1,1,2.23,1
16,50,1,0,1,1,2.76,1
16,52,1,1,0,1,2.21,0
16,53,1,0,1,0,3.85,0
16,54,1,1,1,1,2.99,1
16,55,1,0,0,1,2.15,0
16,56,1,0,1,0,3.84,0
16,57,1,1,0,1,1.87,0
16,58,1,1,1,1,3.64,1
16,59,1,1,1,1,1.93,1
16,60,1,1,1,1,1.88,1
17,1,1,1,0,1,4.12,0
17,2,1,1,0,1,2.92,0
17,3,1,0,1,0,3.65,0
17,4,1,1,0,0,3.52,1
17,5,1,1,0,0,3.03,1
17,6,1,0,0,0,3.5,1
17,7,1,0,0,0,3.62,1
17,8,1,0,1,0,3.02,0
17,9,1,1,0,1,4.33,0
17,10,1,0,1,1,6.75,1
17,11,1,0,0,0,2.85,1
17,12,1,1,1,1,3.92,1
17,13,1,1,1,0,3.84,0
17,14,1,1,0,0,3.58,1
17,15,1,0,1,1,6.17,1
17,16,1,1,1,1,3.9,1
17,18,1,0,1,0,3.49,0
17,19,1,0,0,1,4.49,0
17,20,1,1,0,1,3.17,0
17,21,1,0,0,0,4.52,1
17,22,1,1,0,1,2.97,0
17,23,1,1,1,1,4.95,1
17,25,1,1,1,1,2.82,1
17,26,1,0,1,0,3.09,0
17,27,1,1,1,1,3.29,1
17,28,1,1,1,1,3.37,1
17,29,1,1,0,1,3.47,0
17,30,1,0,0,1,4.27,0
17,31,1,0,1,0,3.23,0
17,32,1,1,1,1,3.86,1
17,33,1,0,0,0,3.52,1
17,34,1,1,1,0,3.53,0
17,35,1,1,0,0,5.41,1
17,36,1,1,1,1,3.33,1
17,37,1,1,0,1,4.39,0
17,38,1,0,0,0,6.4,1
17,39,1,0,0,1,4.07,0
17,40,1,1,0,1,2.79,0
17,41,1,0,1,1,4.62,1
17,42,1,0,1,1,3.94,1
17,43,1,0,1,0,3.3,0
17,44,1,0,0,1,4.2,0
17,45,1,1,1,0,4.84,0
17,46,1,0,0,0,3.15,1
17,47,1,0,1,0,3.68,0
17,48,1,0,0,0,4.74,1
17,49,1,1,0,1,3.22,0
17,50,1,1,1,1,2.86,1
17,51,1,1,0,1,2.3,0
17,52,1,0,1,0,4.4,0
17,53,1,1,1,1,2.78,1
17,54,1,1,1,1,4.32,1
17,55,1,0,1,1,3.19,1
17,56,1,1,0,1,2.67,0
17,57,1,0,1,0,3.27,0
17,58,1,0,0,1,2.87,0
17,59,1,1,1,1,2.97,1
17,60,1,0,0,1,4.57,0
18,1,1,1,0,0,3.5,1
18,2,1,0,1,0,3.75,0
18,3,1,1,1,1,4.29,1
18,4,1,1,0,0,2.69,1
18,5,1,1,0,1,2.65,0
18,6,1,0,1,0,3.52,0
18,7,1,1,1,0,3.73,0
18,8,1,1,0,1,3.24,0
18,10,1,0,1,0,2.4,0
18,11,1,1,1,1,2,1
18,12,1,1,1,1,2.01,1
18,13,1,1,0,1,3.1,0
18,14,1,0,0,0,4.12,1
18,15,1,0,1,1,3.45,1
18,16,1,0,0,0,3.8,1
18,17,1,1,0,1,1.8,0
18,18,1,1,1,0,3.95,0
18,19,1,1,0,1,3.68,0
18,20,1,0,1,1,4.55,1
18,21,1,1,0,1,4.32,0
18,22,1,0,1,1,3.37,1
18,23,1,0,0,0,4.2,1
18,24,1,0,0,0,4.39,1
18,25,1,0,1,0,3.68,0
18,26,1,0,0,1,3.67,0
18,27,1,0,1,0,3.42,0
18,28,1,0,1,0,4.15,0
18,29,1,0,0,1,4.75,0
18,30,1,0,1,1,3.61,1
18,31,1,1,0,1,2.36,0
18,32,1,0,0,1,4,0
18,33,1,1,0,1,3.9,0
18,34,1,1,1,1,3.97,1
18,35,1,1,1,1,1.85,1
18,36,1,1,1,1,2.22,1
18,37,1,1,0,0,3.53,1
18,38,1,0,0,1,2.65,0
18,39,1,0,0,0,4.22,1
18,40,1,0,1,1,3.82,1
18,41,1,1,0,1,2.16,0
18,42,1,0,1,0,4.88,0
18,43,1,1,1,1,2.17,1
18,44,1,1,1,1,2.4,1
18,45,1,0,1,1,4.02,1
18,46,1,1,1,1,3.33,1
18,47,1,0,1,0,4.26,0
18,48,1,0,0,1,4.92,0
18,49,1,0,0,0,3.82,1
18,50,1,1,1,1,3.27,1
18,51,1,1,1,1,4.89,1
18,52,1,0,1,0,3.46,0
18,53,1,1,1,1,2.32,1
18,54,1,0,0,0,5.28,1
18,55,1,1,1,1,3.26,1
18,56,1,1,0,1,2.44,0
18,57,1,0,0,1,4.63,0
18,58,1,0,0,0,3.82,1
18,59,1,1,0,1,3,0
18,60,1,0,0,0,3.81,1
19,1,1,0,0,0,3.23,1
19,2,1,1,0,1,2.37,0
19,3,1,1,0,1,2.21,0
19,4,1,1,1,1,2.06,1
19,5,1,0,0,0,3.13,1
19,6,1,1,0,1,2.36,0
19,7,1,1,0,1,2.18,0
19,8,1,0,1,0,2.25,0
19,9,1,1,0,1,2,0
19,10,1,0,1,0,2.47,0
19,11,1,1,1,1,1.99,1
19,12,1,0,0,0,4.07,1
19,13,1,1,0,1,1.97,0
19,14,1,1,0,1,1.89,0
19,15,1,1,1,1,1.43,1
19,16,1,0,1,0,2.4,0
19,17,1,1,0,1,1.8,0
19,18,1,1,0,1,1.87,0
19,19,1,0,1,1,1.92,1
19,20,1,0,0,0,1.92,1
19,21,1,1,1,1,2.08,1
19,22,1,1,0,1,1.58,0
19,23,1,0,0,0,1.48,1
19,24,1,0,0,1,2.57,0
19,25,1,0,0,0,2.06,1
19,26,1,1,0,1,1.87,0
19,27,1,1,1,1,1.55,1
19,28,1,0,1,0,1.77,0
19,29,1,0,0,0,1.4,1
19,30,1,0,0,0,2.21,1
19,31,1,0,1,0,1.72,0
19,32,1,0,0,0,2.3,1
19,33,1,1,0,1,2.14,0
19,34,1,1,1,1,1.49,1
19,35,1,1,1,1,1.23,1
19,36,1,1,1,1,1.83,1
19,37,1,1,1,1,1.38,1
19,39,1,1,0,0,1.49,1
19,40,1,0,1,0,2.07,0
19,41,1,1,1,1,1.55,1
19,42,1,1,1,1,1.27,1
19,43,1,1,1,1,1.37,1
19,44,1,0,1,1,2.04,1
19,45,1,0,1,1,1.62,1
19,46,1,1,1,1,1.49,1
19,47,1,0,0,1,2.25,0
19,48,1,0,1,1,2.92,1
19,49,1,1,0,1,1.32,0
19,50,1,0,0,1,2.09,0
19,51,1,0,1,1,2.32,1
19,52,1,0,0,1,2.02,0
19,53,1,0,1,0,2.17,0
19,54,1,1,1,0,3.6,0
19,55,1,0,0,0,3.4,1
19,56,1,0,1,0,2.18,0
19,57,1,0,0,0,3.32,1
19,58,1,1,1,1,2.29,1
19,59,1,0,1,1,2.3,1
19,60,1,0,1,0,2.21,0
20,1,1,1,1,1,3.05,1
20,2,1,0,1,0,5.78,0
20,3,1,0,1,1,4.31,1
20,4,1,0,0,1,3.5,0
20,5,1,1,0,0,4.98,1
20,6,1,0,0,1,5.1,0
20,7,1,1,1,1,6.43,1
20,8,1,0,1,0,5.13,0
20,9,1,1,1,1,3.17,1
20,10,1,0,1,0,4.35,0
20,11,1,0,1,1,2.79,1
20,12,1,0,0,1,5.3,0
20,13,1,0,0,0,5.85,1
20,14,1,1,0,0,2.53,1
20,15,1,1,0,1,3.03,0
20,16,1,1,1,1,5.48,1
20,17,1,1,0,1,2.38,0
20,18,1,0,0,1,4.69,0
20,19,1,1,0,1,1.93,0
20,20,1,1,0,1,2.65,0
20,21,1,1,1,1,2.06,1
20,22,1,0,0,0,2.28,1
20,23,1,0,1,1,2.8,1
20,24,1,1,1,1,2.17,1
20,25,1,1,0,1,2.37,0
20,26,1,1,1,1,2.54,1
20,27,1,1,1,1,2.14,1
20,28,1,1,0,1,2.04,0
20,29,1,0,1,1,4.09,1
20,30,1,0,1,0,3.28,0
20,31,1,1,0,1,2.27,0
20,32,1,0,0,1,3.14,0
20,33,1,0,1,0,5.85,0
20,34,1,1,1,1,1.53,1
20,35,1,1,1,1,1.55,1
20,36,1,1,1,1,2.73,1
20,37,1,1,0,1,2.07,0
20,38,1,1,0,1,3.85,0
20,39,1,0,0,1,2.5,0
20,40,1,1,0,1,1.67,0
20,42,1,0,1,0,3.12,0
20,43,1,0,1,1,5.02,1
20,44,1,0,1,0,5.08,0
20,45,1,0,0,1,4.31,0
20,46,1,1,0,1,2.46,0
20,47,1,0,1,1,2.39,1
20,48,1,0,0,0,3.18,1
20,49,1,1,1,1,4.53,1
20,50,1,0,0,0,3.36,1
20,51,1,0,0,0,5,1
20,52,1,0,0,0,4.71,1
20,53,1,0,1,0,3.25,0
20,54,1,0,0,1,2.78,0
20,55,1,1,0,1,4.07,0
20,56,1,1,1,1,2.93,1
20,57,1,0,0,0,3.63,1
20,58,1,0,1,0,3.5,0
20,59,1,1,1,1,3.46,1
20,60,1,1,0,1,6.79,0
21,1,1,0,1,1,2.87,1
21,2,1,1,0,1,2.01,0
21,3,1,0,1,1,2.85,1
21,4,1,1,0,1,1.7,0
21,5,1,1,0,1,2.01,0
21,6,1,0,0,1,4.68,0
21,7,1,0,1,1,2.24,1
21,9,1,0,0,0,2.97,1
21,10,1,1,1,1,1.88,1
21,11,1,1,0,1,1.84,0
21,12,1,0,0,1,1.96,0
21,13,1,0,1,1,2.06,1
21,14,1,0,1,0,3.1,0
21,15,1,0,1,1,3.07,1
21,16,1,1,0,1,1.68,0
21,17,1,0,1,0,3.2,0
21,18,1,0,0,1,2.9,0
21,19,1,0,1,1,3.17,1
21,20,1,0,0,0,3.16,1
21,21,1,0,0,0,4.38,1
21,22,1,0,0,1,2.97,0
21,23,1,0,1,0,4.56,0
21,24,1,1,1,1,1.9,1
21,25,1,1,0,1,1.6,0
21,26,1,1,0,1,1.37,0
21,27,1,1,1,1,1.89,1
21,29,1,0,0,1,3.37,0
21,30,1,1,1,0,4.18,0
21,31,1,1,1,1,3.52,1
21,32,1,1,0,1,2.22,0
21,33,1,0,1,1,3.02,1
21,34,1,0,1,1,2.57,1
21,35,1,0,0,1,1.75,0
21,36,1,1,1,1,2.34,1
21,37,1,0,0,0,3.75,1
21,38,1,0,1,0,2.76,0
21,39,1,0,0,0,3.9,1
21,40,1,1,1,0,3.6,0
21,41,1,0,1,1,3.15,1
21,42,1,1,1,1,2.27,1
21,43,1,1,0,1,1.89,0
21,44,1,1,0,1,2.15,0
21,45,1,0,0,0,3.01,1
21,46,1,0,1,1,2.9,1
21,47,1,1,1,1,1.79,1
21,48,1,1,0,1,3.45,0
21,49,1,1,1,1,2.22,1
21,50,1,1,0,1,1.91,0
21,51,1,1,1,1,1.95,1
21,52,1,1,0,1,1.97,0
21,53,1,1,1,1,2.89,1
21,54,1,1,0,1,3.01,0
21,55,1,1,1,1,3.24,1
21,56,1,0,0,1,4.63,0
21,57,1,0,0,0,4.07,1
21,58,1,1,1,1,2.77,1
21,59,1,0,0,0,3.03,1
21,60,1,0,1,1,4.38,1
22,1,1,0,0,1,2.46,0
22,2,1,1,1,0,3.47,0
22,3,1,1,0,1,2.81,0
22,4,1,1,0,1,2.58,0
22,6,1,0,0,1,2.49,0
22,7,1,0,0,1,2.56,0
22,8,1,1,0,1,2.47,0
22,9,1,1,0,1,1.7,0
22,10,1,1,0,0,5.22,1
22,11,1,0,1,1,3.4,1
22,12,1,1,1,0,3.35,0
22,13,1,0,0,1,2.27,0
22,14,1,1,0,1,3.02,0
22,15,1,0,1,1,2.91,1
22,16,1,1,1,1,3.32,1
22,17,1,1,1,1,1.8,1
22,18,1,0,0,0,4.2,1
22,19,1,1,1,1,2.27,1
22,20,1,1,1,1,2.58,1
22,21,1,0,0,0,3.08,1
22,22,1,0,0,1,2.59,0
22,23,1,1,1,1,2.02,1
22,24,1,0,0,1,4.59,0
22,25,1,1,0,0,3.08,1
22,26,1,0,1,1,2.85,1
22,27,1,0,1,0,1.5,0
22,28,1,0,0,0,3.36,1
22,29,1,1,0,1,1.92,0
22,30,1,0,1,1,2.41,1
22,31,1,0,1,1,4.27,1
22,32,1,1,0,1,2.55,0
22,33,1,0,0,0,3.3,1
22,34,1,0,1,0,3.1,0
22,35,1,1,0,1,1.65,0
22,36,1,0,0,1,3.57,0
22,37,1,0,0,0,4.11,1
22,38,1,1,1,1,1.59,1
22,39,1,0,0,1,3.92,0
22,40,1,1,0,1,1.75,0
22,41,1,1,1,1,1.47,1
22,42,1,0,1,0,2.62,0
22,43,1,1,1,1,1.64,1
22,44,1,0,0,1,3.84,0
22,45,1,0,1,0,3.65,0
22,46,1,0,1,1,2.05,1
22,47,1,0,1,1,3.4,1
22,48,1,1,0,1,1.82,0
22,49,1,1,1,1,1.55,1
22,51,1,0,1,1,2.42,1
22,52,1,0,1,0,2.83,0
22,53,1,1,1,1,1.9,1
22,54,1,0,0,1,2.74,0
22,55,1,0,1,1,3.72,1
22,56,1,1,1,0,2.01,0
22,57,1,0,1,1,1.83,1
22,58,1,1,1,1,2.01,1
22,59,1,1,0,1,1.6,0
22,60,1,1,1,1,1.62,1
23,1,1,1,0,0,3.55,1
23,2,1,1,0,1,4.08,0
23,3,1,0,1,0,6.22,0
23,4,1,0,0,0,7.01,1
23,5,1,1,1,1,4.64,1
23,6,1,0,0,0,7.16,1
23,7,1,1,0,1,6.89,0
23,8,1,1,0,1,3.69,0
23,9,1,0,1,1,5.23,1
23,10,1,0,1,1,7.28,1
23,11,1,0,0,1,4.32,0
23,12,1,0,0,1,6.19,0
23,15,1,1,1,1,7.08,1
23,16,1,1,0,1,8.68,0
23,17,1,0,0,1,3.79,0
23,18,1,1,1,1,3.18,1
23,19,1,0,0,0,7.21,1
23,20,1,0,1,1,3.61,1
23,21,1,0,1,1,4.99,1
23,22,1,0,1,1,7.87,1
23,23,1,1,0,1,3.19,0
23,24,1,1,0,1,2.92,0
23,25,1,1,1,1,4.69,1
23,26,1,1,1,1,3.95,1
23,27,1,1,0,1,3.37,0
23,28,1,1,0,1,3.57,0
23,30,1,0,1,1,3.58,1
23,31,1,1,0,1,2.3,0
23,32,1,1,1,1,2.69,1
23,33,1,0,1,0,4.13,0
23,34,1,0,0,0,5.03,1
23,35,1,1,1,0,4.8,0
23,36,1,0,0,0,4.86,1
23,37,1,1,1,1,3.4,1
23,38,1,0,0,0,3.77,1
23,39,1,1,1,1,5.07,1
23,40,1,1,0,1,5.94,0
23,41,1,0,1,1,4.97,1
23,42,1,1,0,1,4.69,0
23,43,1,1,0,1,3.71,0
23,44,1,0,1,0,5.2,0
23,45,1,0,1,0,5.76,0
23,46,1,1,1,0,5.97,0
23,47,1,1,1,1,3.54,1
23,48,1,0,1,1,6.21,1
23,49,1,1,0,1,7.7,0
23,50,1,0,0,1,2.94,0
23,51,1,1,0,1,7.78,0
23,53,1,0,1,1,6.39,1
23,54,1,0,0,1,7.46,0
23,55,1,0,0,0,4.24,1
23,56,1,1,1,1,4.78,1
23,57,1,0,1,1,3.81,1
23,58,1,0,0,1,3.85,0
23,59,1,0,0,1,3.65,0
23,60,1,1,1,0,3.33,0
24,1,1,1,1,0,4.43,0
24,2,1,0,1,0,2.93,0
24,3,1,0,1,0,5.44,0
24,4,1,1,1,0,4.23,0
24,5,1,0,0,0,5.82,1
24,6,1,1,0,1,4.28,0
24,7,1,1,0,0,3.12,1
24,8,1,0,1,1,3.39,1
24,9,1,1,1,0,5.49,0
24,10,1,1,0,1,3.7,0
24,11,1,1,0,1,2.57,0
24,12,1,1,1,0,6.82,0
24,13,1,1,0,0,4.55,1
24,14,1,1,0,0,5.46,1
24,15,1,0,0,0,5.06,1
24,16,1,1,1,0,4.01,0
24,17,1,0,1,1,5.41,1
24,18,1,0,1,1,4.11,1
24,19,1,1,0,0,3.87,1
24,20,1,0,0,1,5.12,0
24,21,1,0,0,0,4.29,1
24,22,1,1,1,0,5.14,0
24,23,1,0,1,0,3.56,0
24,24,1,1,0,0,5.37,1
24,25,1,1,0,0,3.77,1
24,26,1,1,0,1,4.01,0
24,27,1,1,0,0,6.5,1
24,28,1,1,1,0,3.78,0
24,29,1,0,1,0,4.09,0
24,30,1,0,0,1,3.98,0
24,31,1,1,1,0,4.51,0
24,32,1,0,1,0,5.23,0
24,33,1,0,0,0,4.32,1
24,34,1,0,0,1,3.71,0
24,35,1,1,0,0,6.75,1
24,36,1,0,0,0,2.83,1
24,37,1,0,0,0,3.81,1
24,38,1,1,0,1,3.2,0
24,39,1,0,0,1,4.67,0
24,40,1,0,0,0,5.08,1
24,41,1,1,1,0,3.97,0
24,42,1,0,0,0,4.09,1
24,43,1,1,1,0,3.64,0
24,44,1,1,1,0,3.48,0
24,45,1,0,1,0,3.43,0
24,46,1,0,0,1,3.94,0
24,47,1,0,0,0,3.83,1
24,48,1,0,1,0,3.45,0
24,49,1,0,1,0,3.52,0
24,51,1,1,1,1,3.07,1
24,52,1,1,0,0,3.47,1
24,53,1,0,0,0,4.38,1
24,54,1,0,1,1,6.69,1
24,55,1,0,1,1,4.33,1
24,56,1,1,1,0,4,0
24,57,1,1,1,0,4,0
24,58,1,0,1,1,4.66,1
24,59,1,1,1,0,5.65,0
24,60,1,1,0,1,4.35,0
25,1,1,0,0,1,4.92,0
25,2,1,1,1,1,2.92,1
25,3,1,0,1,1,3.44,1
25,4,1,0,0,1,3.02,0
25,5,1,1,0,1,2.92,0
25,6,1,1,0,1,3,0
25,7,1,1,0,1,4.79,0
25,8,1,1,1,1,2.44,1
25,9,1,1,1,1,1.97,1
25,10,1,1,0,1,1.19,0
25,11,1,0,0,1,2.25,0
25,12,1,1,1,1,3.55,1
25,14,1,0,0,0,2.17,1
25,15,1,1,0,1,1.48,0
25,16,1,1,0,1,1.54,0
25,17,1,0,1,1,2.67,1
25,18,1,1,1,1,1.31,1
25,19,1,0,1,0,4,0
25,20,1,1,1,1,1.25,1
25,21,1,1,1,1,1.69,1
25,22,1,0,1,1,3.19,1
25,23,1,0,0,1,2.44,0
25,24,1,1,1,1,2.29,1
25,25,1,1,1,1,1.98,1
25,26,1,0,0,1,5.47,0
25,27,1,0,1,1,2.74,1
25,28,1,1,0,1,1.86,0
25,29,1,0,0,1,2.5,0
25,30,1,1,1,1,2.1,1
25,31,1,0,0,1,3.07,0
25,32,1,1,0,1,1.8,0
25,33,1,0,1,0,2.83,0
25,34,1,1,0,1,1.71,0
25,35,1,0,0,1,3.13,0
25,36,1,0,1,1,2.4,1
25,37,1,1,0,1,1.84,0
25,38,1,0,0,1,3.2,0
25,39,1,0,0,1,3.12,0
25,40,1,0,1,0,2.8,0
25,41,1,0,0,1,2.03,0
25,42,1,0,1,1,2.27,1
25,43,1,0,1,1,2.32,1
25,44,1,0,1,0,3.55,0
25,45,1,1,0,1,1.68,0
25,46,1,0,0,1,4.23,0
25,47,1,0,1,1,2.8,1
25,48,1,1,1,1,2.71,1
25,49,1,0,1,1,3.42,1
25,50,1,1,1,1,3.4,1
25,51,1,1,0,0,6.56,1
25,52,1,1,1,1,2.26,1
25,53,1,0,1,0,4.52,0
25,54,1,1,0,1,2.25,0
25,55,1,0,0,1,4.67,0
25,56,1,1,1,1,1.47,1
25,57,1,0,1,1,2.31,1
25,58,1,0,0,1,3.24,0
25,59,1,1,0,1,2.03,0
25,60,1,1,1,1,2.37,1
26,1,1,0,0,0,5.04,1
26,2,1,0,0,1,5.1,0
26,3,1,1,1,1,3.12,1
26,4,1,0,0,0,3.08,1
26,5,1,0,0,0,3.89,1
26,6,1,0,1,1,3.24,1
26,7,1,0,1,1,3.07,1
26,8,1,1,1,1,2.32,1
26,9,1,1,1,1,6.42,1
26,10,1,1,1,1,4.98,1
26,11,1,1,0,0,6.57,1
26,12,1,1,1,1,6.3,1
26,13,1,1,0,0,3.03,1
26,14,1,0,0,0,2.83,1
26,15,1,0,1,1,3.02,1
26,16,1,0,1,1,4.08,1
26,17,1,1,0,1,3.96,0
26,18,1,0,0,1,2.7,0
26,19,1,0,0,1,4.9,0
26,20,1,1,1,1,6.32,1
26,21,1,0,1,1,4.51,1
26,22,1,1,0,0,4.8,1
26,23,1,0,0,1,3.8,0
26,24,1,0,1,1,2.85,1
26,25,1,0,0,1,2.5,0
26,26,1,0,1,0,3.92,0
26,27,1,1,0,1,5.8,0
26,28,1,1,0,1,3.13,0
26,29,1,1,1,0,4.12,0
26,30,1,1,1,0,4.27,0
26,31,1,1,0,1,2.11,0
26,32,1,0,0,1,4.48,0
26,33,1,1,1,1,3.65,1
26,34,1,0,1,0,3.84,0
26,35,1,0,1,0,4.18,0
26,36,1,0,0,0,3.65,1
26,37,1,1,1,1,2.66,1
26,38,1,1,1,1,4.6,1
26,39,1,0,0,0,4.63,1
26,40,1,0,1,1,3.76,1
26,41,1,0,0,0,3.27,1
26,43,1,0,0,1,3.5,0
26,44,1,1,0,1,1.99,0
26,45,1,1,0,1,5.88,0
26,46,1,1,0,1,3.73,0
26,47,1,1,1,1,4.39,1
26,48,1,1,0,1,3.95,0
26,49,1,0,1,1,5.16,1
26,50,1,0,1,0,5,0
26,51,1,1,1,0,3.47,0
26,52,1,0,0,0,3.7,1
26,53,1,0,1,0,3.42,0
26,55,1,1,0,1,6.02,0
26,56,1,1,1,0,4.07,0
26,57,1,0,1,1,3.01,1
26,58,1,1,0,1,2.4,0
26,59,1,1,0,1,2.26,0
26,60,1,1,0,1,6.11,0
27,1,1,0,0,1,4.82,0
27,2,1,1,1,0,3.56,0
27,3,1,0,1,1,3.61,1
27,4,1,0,0,1,3.83,0
27,5,1,0,0,0,4.64,1
27,6,1,1,1,0,2.85,0
27,7,1,0,1,1,3.15,1
27,8,1,1,0,1,3.99,0
27,9,1,1,0,0,2.32,1
27,10,1,1,0,1,5,0
27,12,1,0,0,1,5.81,0
27,13,1,0,0,1,5.8,0
27,14,1,0,0,1,2.66,0
27,15,1,1,1,1,4.01,1
27,16,1,1,0,1,5.14,0
27,17,1,1,1,1,2.98,1
27,18,1,0,1,1,3.25,1
27,19,1,1,0,0,3.62,1
27,20,1,1,1,1,4.27,1
27,22,1,1,0,1,3.4,0
27,23,1,1,1,0,2.12,0
27,24,1,1,0,0,7.37,1
27,25,1,1,1,0,4.64,0
27,26,1,0,0,1,3.58,0
27,27,1,0,0,1,5.35,0
27,28,1,1,1,1,6.55,1
27,29,1,0,0,1,5.4,0
27,30,1,0,1,1,3.52,1
27,31,1,0,1,0,3.71,0
27,32,1,1,1,1,3.78,1
27,33,1,0,1,0,5.57,0
27,34,1,0,0,1,3.19,0
27,35,1,0,0,0,4.29,1
27,36,1,0,0,0,4.53,1
27,37,1,1,0,1,3.45,0
27,38,1,0,1,1,5.02,1
27,39,1,1,1,0,3.87,0
27,40,1,0,0,1,3.52,0
27,41,1,0,1,1,4.41,1
27,42,1,1,1,0,2.98,0
27,43,1,1,1,0,2.57,0
27,44,1,0,1,0,4.43,0
27,45,1,0,1,1,4.96,1
27,46,1,0,1,1,2.73,1
27,47,1,0,1,1,6.92,1
27,48,1,1,1,1,4.69,1
27,49,1,0,0,1,2.5,0
27,50,1,0,1,1,4.95,1
27,51,1,1,0,1,2.2,0
27,52,1,1,0,1,5.38,0
27,53,1,0,1,0,4.18,0
27,54,1,1,0,1,4.87,0
27,55,1,1,1,1,2.86,1
27,56,1,0,0,1,6.67,0
27,57,1,0,1,0,3.53,0
27,58,1,1,0,0,5.52,1
27,59,1,1,1,0,2.68,0
27,60,1,1,0,1,2.55,0
28,1,1,0,0,1,4.42,0
28,2,1,1,1,1,4.12,1
28,3,1,0,0,1,3.62,0
28,4,1,0,0,0,4.25,1
28,5,1,0,1,0,3.47,0
28,6,1,0,1,0,6.94,0
28,7,1,0,0,1,5.01,0
28,8,1,0,1,0,3.02,0
28,9,1,0,1,1,3.05,1
28,10,1,1,1,1,2.76,1
28,11,1,1,1,0,2.13,0
28,12,1,0,1,0,7.12,0
28,13,1,0,1,0,6.1,0
28,14,1,1,0,0,4.83,1
28,15,1,0,0,0,6.68,1
28,16,1,1,1,1,2.69,1
28,17,1,0,0,1,4.46,0
28,18,1,0,1,0,4.05,0
28,19,1,0,0,1,4.97,0
28,20,1,1,0,1,3.59,0
28,21,1,0,1,0,5.14,0
28,22,1,0,1,0,5.64,0
28,23,1,1,0,1,2.28,0
28,24,1,1,0,1,3.38,0
28,25,1,1,0,0,8.27,1
28,26,1,0,0,0,2.97,1
28,27,1,1,0,1,3.39,0
28,28,1,1,1,1,4.6,1
28,29,1,1,1,1,3.85,1
28,30,1,1,1,1,5.22,1
28,31,1,0,1,1,3.6,1
28,32,1,1,1,1,5.12,1
28,33,1,0,0,0,5.23,1
28,34,1,1,1,1,3.35,1
28,35,1,1,0,1,5.27,0
28,36,1,0,0,0,5.59,1
28,37,1,1,0,1,2.5,0
28,38,1,1,1,1,2.75,1
28,39,1,1,0,1,5.91,0
28,40,1,0,0,1,5.02,0
28,41,1,0,1,0,4.77,0
28,42,1,1,0,0,4.52,1
28,43,1,0,0,0,6.53,1
28,44,1,0,1,0,6.3,0
28,45,1,0,1,0,4.58,0
28,46,1,0,0,0,4.43,1
28,47,1,1,0,1,4.75,0
28,48,1,1,1,1,4.89,1
28,49,1,1,0,1,2.5,0
28,50,1,1,1,0,4.67,0
28,51,1,1,0,0,4.95,1
28,52,1,0,1,0,4.84,0
28,53,1,0,0,1,7.36,0
28,54,1,1,0,1,2.88,0
28,55,1,0,0,1,4.02,0
28,56,1,1,1,1,3.45,1
28,57,1,1,1,1,3.12,1
28,58,1,1,1,1,3.77,1
28,59,1,0,1,1,2.45,1
28,60,1,1,0,1,3.67,0
29,1,1,1,0,1,4.11,0
29,2,1,1,0,1,7.8,0
29,3,1,0,0,0,5.72,1
29,4,1,0,1,1,2.56,1
29,5,1,1,0,0,8.34,1
29,6,1,1,1,0,2.55,0
29,7,1,0,1,1,4.62,1
29,8,1,1,1,0,2.96,0
29,9,1,1,1,1,3.55,1
29,10,1,1,0,1,6.86,0
29,11,1,0,1,1,3.22,1
29,12,1,0,1,1,4.95,1
29,13,1,0,1,1,4.41,1
29,14,1,1,0,1,3.02,0
29,15,1,0,0,1,4.43,0
29,16,1,1,1,1,3.36,1
29,17,1,1,0,0,4.12,1
29,18,1,0,0,0,4.37,1
29,19,1,0,0,1,2.85,0
29,20,1,0,1,0,2.84,0
29,21,1,0,0,0,2.21,1
29,22,1,0,1,0,3.47,0
29,23,1,1,1,0,3.65,0
29,24,1,1,1,1,2.65,1
29,25,1,1,0,1,2.84,0
29,26,1,1,0,0,4.79,1
29,27,1,1,0,1,5.06,0
29,28,1,1,1,0,3.73,0
29,29,1,1,1,0,4.93,0
29,30,1,1,1,1,3.26,1
29,31,1,1,0,1,3.15,0
29,32,1,1,1,1,7.51,1
29,33,1,0,0,1,3.12,0
29,35,1,0,1,1,2.72,1
29,36,1,0,0,0,5.22,1
29,37,1,0,1,1,5.55,1
29,38,1,1,1,0,5.1,0
29,39,1,0,1,1,3.35,1
29,40,1,0,0,1,4,0
29,41,1,0,1,0,3.67,0
29,42,1,0,0,0,3.97,1
29,43,1,0,0,1,6.01,0
29,44,1,0,1,0,3.94,0
29,45,1,0,1,0,3.58,0
29,46,1,1,1,1,2.89,1
29,47,1,0,1,1,5.92,1
29,48,1,0,0,1,3.07,0
29,49,1,1,1,0,6.39,0
29,50,1,0,0,1,7.68,0
29,51,1,1,0,0,5.77,1
29,53,1,0,1,0,2.96,0
29,54,1,1,1,0,2.48,0
29,55,1,1,0,1,2.75,0
29,56,1,1,1,1,2.4,1
29,57,1,0,0,0,4.82,1
29,58,1,1,0,1,3.1,0
29,59,1,0,0,1,2.98,0
29,60,1,1,0,1,3.45,0
30,1,1,0,1,1,2.8,1
30,2,1,0,1,0,3.92,0
30,3,1,1,1,1,2.98,1
30,4,1,1,1,1,2.37,1
30,5,1,0,0,1,2.67,0
30,6,1,1,1,1,2.5,1
30,7,1,0,1,0,4.74,0
30,8,1,0,0,1,1.77,0
30,9,1,0,1,1,3.75,1
30,10,1,0,1,1,4.19,1
30,11,1,0,0,0,3.39,1
30,12,1,1,0,1,1.85,0
30,13,1,1,1,1,2.12,1
30,15,1,1,1,0,3.23,0
30,16,1,1,0,1,2.47,0
30,17,1,0,0,1,3.75,0
30,18,1,1,0,1,1.94,0
30,19,1,1,1,0,2.83,0
30,20,1,1,1,1,2.02,1
30,21,1,0,0,1,2.91,0
30,22,1,0,0,1,1.91,0
30,23,1,1,1,1,2.45,1
30,24,1,1,1,1,2.15,1
30,25,1,0,0,1,2.1,0
30,26,1,0,1,1,3.14,1
30,27,1,0,0,1,2.17,0
30,28,1,1,0,1,2.12,0
30,29,1,0,0,0,2.65,1
30,30,1,1,0,1,2.07,0
30,31,1,1,0,1,1.93,0
30,32,1,0,0,1,2.15,0
30,33,1,0,0,1,4.48,0
30,34,1,0,0,1,3.19,0
30,35,1,1,0,1,2.16,0
30,36,1,0,1,0,2.6,0
30,37,1,1,1,1,2.45,1
30,38,1,1,1,1,1.95,1
30,39,1,1,0,1,2.52,0
30,40,1,1,1,1,3.27,1
30,41,1,1,1,1,1.94,1
30,42,1,0,1,1,1.84,1
30,43,1,1,1,1,1.71,1
30,44,1,1,0,1,3.98,0
30,45,1,0,1,1,2.29,1
30,46,1,1,0,1,2.34,0
30,47,1,1,0,1,2.71,0
30,48,1,1,1,1,1.77,1
30,49,1,0,1,1,4.3,1
30,50,1,1,0,0,5.3,1
30,51,1,0,0,0,2.38,1
30,52,1,0,1,0,4.08,0
30,53,1,0,1,1,4.32,1
30,54,1,1,0,1,2.38,0
30,55,1,0,1,0,3.68,0
30,56,1,0,1,1,2.55,1
30,57,1,1,0,1,2.16,0
30,58,1,0,0,1,2.44,0
30,59,1,0,0,0,2.43,1
30,60,1,0,1,0,3.38,0
31,1,1,0,0,0,1.82,1
31,2,1,1,1,0,2.82,0
31,3,1,0,1,0,1.87,0
31,4,1,0,0,0,2.78,1
31,5,1,0,0,0,2.25,1
31,6,1,0,1,0,2.08,0
31,7,1,0,0,0,1.9,1
31,9,1,0,1,1,2.66,1
31,10,1,1,1,1,2.05,1
31,11,1,0,1,0,1.6,0
31,12,1,1,0,1,2.41,0
31,13,1,0,1,0,1.53,0
31,14,1,0,1,0,2.94,0
31,15,1,1,1,1,2.46,1
31,16,1,1,0,1,2.05,0
31,17,1,1,0,1,3.15,0
31,18,1,1,0,1,2.61,0
31,19,1,0,0,1,2.47,0
31,21,1,1,1,1,2.98,1
31,22,1,1,1,1,3.46,1
31,23,1,1,0,1,3.4,0
31,24,1,1,0,1,3.02,0
31,25,1,1,0,1,5.23,0
31,26,1,1,0,1,3.48,0
31,27,1,0,0,0,3.72,1
31,28,1,1,0,0,6.03,1
31,29,1,0,1,1,4.38,1
31,30,1,0,1,1,8.03,1
31,31,1,0,1,0,5.03,0
31,32,1,0,0,0,1.83,1
31,33,1,0,0,1,1.87,0
31,34,1,1,1,1,4.27,1
31,35,1,0,1,0,4.01,0
31,36,1,0,0,0,2.82,1
31,37,1,1,1,1,3.01,1
31,38,1,1,0,1,3.18,0
31,39,1,1,1,0,3.45,0
31,40,1,0,0,1,3.78,0
31,41,1,1,1,0,5.46,0
31,42,1,0,0,1,1.7,0
31,43,1,0,1,1,2.29,1
31,44,1,1,1,1,2.91,1
31,45,1,0,0,1,1.89,0
31,46,1,1,0,0,2.9,1
31,47,1,1,1,1,2.25,1
31,48,1,0,1,0,4.83,0
31,49,1,0,1,0,2.62,0
31,50,1,1,0,0,7.96,1
31,52,1,0,0,1,1.75,0
31,53,1,0,0,0,1.47,1
31,55,1,0,1,1,1.97,1
31,56,1,1,1,1,4.5,1
31,57,1,1,1,1,4.33,1
31,58,1,1,1,0,3.38,0
31,59,1,1,1,0,3.33,0
31,60,1,0,0,1,3.23,0
32,1,1,0,0,0,5.2,1
32,2,1,1,0,0,3.09,1
32,3,1,0,1,1,3.7,1
32,4,1,1,0,1,3.34,0
32,5,1,0,0,1,4.32,0
32,6,1,0,1,1,5.17,1
32,7,1,0,1,1,3.78,1
32,8,1,1,1,0,6.17,0
32,9,1,0,1,1,6.05,1
32,10,1,1,1,0,4.13,0
32,11,1,0,0,1,4.05,0
32,12,1,1,1,0,4.76,0
32,13,1,1,1,1,6.67,1
32,14,1,0,0,0,2.78,1
32,15,1,0,1,0,5.3,0
32,16,1,1,0,1,7.2,0
32,17,1,0,1,1,4.1,1
32,18,1,0,1,0,3.98,0
32,19,1,1,1,1,4.54,1
32,20,1,1,1,1,3.82,1
32,21,1,0,1,0,3.52,0
32,22,1,0,0,0,5.96,1
32,23,1,1,0,1,5.04,0
32,24,1,1,0,1,4.16,0
32,25,1,0,1,1,5.14,1
32,26,1,1,1,0,4.38,0
32,27,1,0,0,0,3.62,1
32,28,1,0,1,0,3.25,0
32,29,1,0,0,1,5.65,0
32,30,1,1,0,1,4.22,0
32,31,1,1,0,0,6.12,1
32,32,1,1,1,1,3,1
32,33,1,0,1,0,5.46,0
32,34,1,1,0,1,4.95,0
32,35,1,1,1,1,4.73,1
32,36,1,0,0,0,3.43,1
32,37,1,0,1,1,2.97,1
32,38,1,1,0,1,3.22,0
32,40,1,0,0,0,3.78,1
32,41,1,0,0,1,5.3,0
32,42,1,1,1,1,4.19,1
32,43,1,0,1,0,7,0
32,44,1,0,0,0,5.82,1
32,45,1,1,1,0,3.87,0
32,46,1,1,1,0,5.19,0
32,47,1,1,0,1,3.48,0
32,48,1,0,1,1,3.32,1
32,49,1,1,1,0,4.8,0
32,50,1,1,1,1,5.4,1
32,51,1,0,0,1,3.12,0
32,52,1,0,1,0,5.07,0
32,54,1,1,1,1,3.27,1
32,55,1,0,0,0,4.03,1
32,56,1,0,0,0,3.34,1
32,57,1,1,0,1,7.26,0
32,58,1,1,0,1,3.93,0
32,59,1,1,0,1,6.72,0
32,60,1,1,0,1,2.75,0
33,1,1,1,0,1,2.58,0
33,2,1,1,1,1,2.28,1
33,3,1,0,1,0,3.29,0
33,4,1,1,0,1,3.24,0
33,5,1,0,0,0,3.55,1
33,6,1,0,0,1,4.09,0
33,7,1,1,0,1,3.94,0
33,8,1,0,0,0,2.57,1
33,9,1,0,0,0,2.34,1
33,10,1,0,1,0,3.71,0
33,11,1,0,1,0,2.74,0
33,12,1,1,1,1,1.62,1
33,13,1,0,0,1,3.02,0
33,14,1,0,0,1,2.07,0
33,15,1,1,0,1,3.02,0
33,16,1,1,0,1,2.5,0
33,17,1,0,0,1,3.89,0
33,19,1,1,1,0,3.27,0
33,20,1,0,1,1,2.07,1
33,21,1,1,1,0,3.65,0
33,22,1,1,0,1,2.81,0
33,23,1,1,1,1,2.06,1
33,24,1,1,0,0,2.3,1
33,25,1,1,1,1,3.07,1
33,26,1,0,1,1,3.45,1
33,27,1,1,1,1,3.27,1
33,28,1,0,0,1,2.49,0
33,29,1,1,1,1,2.7,1
33,30,1,0,1,1,2.95,1
33,31,1,0,1,1,3.43,1
33,32,1,0,1,1,4.73,1
33,33,1,0,0,0,2.93,1
33,34,1,1,0,1,3.18,0
33,35,1,1,1,1,3.6,1
33,36,1,0,0,1,3.47,0
33,37,1,1,1,1,2.24,1
33,38,1,0,0,0,2.25,1
33,39,1,0,1,0,3.5,0
33,40,1,0,1,0,4.12,0
33,41,1,1,1,1,3.27,1
33,42,1,1,0,1,3.55,0
33,43,1,0,1,0,2.77,0
33,44,1,1,0,1,3.01,0
33,45,1,1,0,0,3.59,1
33,46,1,1,0,1,3.5,0
33,47,1,0,1,0,2.86,0
33,48,1,1,0,0,2.97,1
33,49,1,0,0,1,2.83,0
33,50,1,0,1,0,3.45,0
33,51,1,0,0,0,3.02,1
33,52,1,1,0,1,2.49,0
33,53,1,1,0,1,2.3,0
33,54,1,0,1,1,2.63,1
33,55,1,0,0,0,2.69,1
33,56,1,1,1,1,2.67,1
33,57,1,1,1,1,3.55,1
33,58,1,1,1,0,2.45,0
33,59,1,0,1,1,2.43,1
33,60,1,0,0,0,3.23,1
34,1,1,0,0,0,4.13,1
34,2,1,0,1,1,2.59,1
34,3,1,1,0,1,2.69,0
34,4,1,1,1,1,3.3,1
34,5,1,0,0,0,3.01,1
34,6,1,0,1,1,3.26,1
34,7,1,1,1,1,2.3,1
34,8,1,1,0,1,2.22,0
34,9,1,0,1,0,3,0
34,10,1,1,0,1,2.27,0
34,12,1,0,1,0,3.7,0
34,13,1,1,1,1,3.7,1
34,14,1,1,1,1,3.23,1
34,15,1,0,1,0,3.42,0
34,16,1,1,0,1,2.02,0
34,17,1,0,0,0,3.7,1
34,18,1,1,1,1,1.67,1
34,19,1,0,0,0,4.52,1
34,20,1,1,0,1,2.84,0
34,21,1,1,0,1,2.35,0
34,22,1,1,0,0,3.27,1
34,23,1,1,1,1,1.87,1
34,24,1,1,1,0,1.69,0
34,25,1,1,1,1,1.6,1
34,26,1,1,1,1,2.15,1
34,27,1,1,0,1,2.56,0
34,28,1,1,0,1,4.05,0
34,29,1,0,0,1,3.15,0
34,30,1,0,0,0,2.3,1
34,31,1,0,0,1,2.46,0
34,32,1,0,1,0,3.03,0
34,33,1,1,0,1,1.74,0
34,34,1,1,1,1,1.43,1
34,35,1,0,0,0,2.66,1
34,36,1,0,1,0,2.57,0
34,37,1,0,0,1,2.71,0
34,38,1,0,1,1,1.92,1
34,39,1,1,1,1,2.61,1
34,40,1,0,0,0,3.29,1
34,41,1,1,1,0,1.77,0
34,42,1,1,1,0,2.92,0
34,43,1,0,0,0,2.72,1
34,44,1,0,1,0,2.74,0
34,45,1,1,0,0,3.34,1
34,46,1,0,1,0,2.84,0
34,47,1,1,1,0,2.63,0
34,48,1,1,1,0,3.46,0
34,50,1,0,0,1,3.12,0
34,51,1,1,0,1,2.62,0
34,52,1,0,1,0,1.58,0
34,53,1,0,1,0,1.94,0
34,54,1,1,0,1,1.68,0
34,55,1,0,1,0,3.39,0
34,56,1,0,1,0,3.14,0
34,57,1,1,0,1,4.82,0
34,58,1,0,0,1,3.34,0
34,59,1,0,0,1,2.67,0
35,1,1,1,1,1,1.26,1
35,2,1,1,1,1,2.82,1
35,3,1,1,0,0,2.42,1
35,4,1,0,0,1,2.37,0
35,5,1,1,1,1,1.32,1
35,6,1,1,1,0,3.14,0
35,7,1,1,1,0,2.49,0
35,8,1,0,1,1,1.78,1
35,9,1,0,1,1,4.75,1
35,10,1,0,0,1,4.23,0
35,11,1,1,0,0,2.52,1
35,12,1,1,0,1,2.65,0
35,13,1,0,0,1,3.62,0
35,14,1,1,0,0,2.47,1
35,15,1,1,0,1,1.32,0
35,16,1,1,1,1,1.7,1
35,17,1,1,0,0,2.62,1
35,18,1,0,0,1,2.19,0
35,19,1,1,0,0,3.31,1
35,20,1,0,1,0,2.06,0
35,21,1,0,0,1,4.33,0
35,22,1,0,0,1,3.08,0
35,23,1,0,0,1,2.51,0
35,24,1,0,1,0,3.61,0
35,25,1,1,0,0,2.96,1
35,26,1,0,0,0,1.63,1
35,27,1,0,1,1,2.33,1
35,28,1,1,0,1,1.35,0
35,29,1,0,1,0,2.7,0
35,30,1,1,0,1,4.66,0
35,31,1,0,0,0,1.92,1
35,32,1,1,1,1,2.82,1
35,33,1,0,0,1,2.48,0
35,34,1,0,1,1,2.37,1
35,35,1,1,1,1,1.32,1
35,36,1,1,0,1,1.7,0
35,37,1,0,0,1,2.4,0
35,38,1,0,1,1,2.38,1
35,39,1,1,1,1,3.05,1
35,40,1,1,1,0,1.8,0
35,41,1,1,1,1,4.12,1
35,42,1,0,1,1,2.23,1
35,43,1,0,0,1,3.87,0
35,44,1,0,1,0,1.98,0
35,45,1,1,1,1,3.04,1
35,46,1,0,1,0,3.15,0
35,47,1,0,1,0,4.53,0
35,48,1,1,1,1,1.89,1
35,49,1,0,0,1,2.27,0
35,50,1,0,0,1,3.93,0
35,51,1,0,1,0,4.4,0
35,52,1,1,0,1,3.59,0
35,53,1,0,1,1,3.84,1
35,54,1,0,1,1,2.35,1
35,55,1,1,0,1,1.49,0
35,56,1,1,0,0,1.89,1
35,57,1,1,1,0,1.34,0
35,58,1,1,0,1,2.9,0
35,60,1,0,0,0,4.11,1
36,1,1,0,1,0,2.28,0
36,2,1,0,0,1,6.32,0
36,3,1,0,0,1,2.29,0
36,4,1,1,0,0,3.16,1
36,5,1,0,1,1,2.38,1
36,6,1,1,1,1,1.69,1
36,7,1,0,1,0,3.3,0
36,8,1,0,0,1,3.47,0
36,9,1,1,1,1,2.57,1
36,10,1,0,0,0,3.95,1
36,11,1,0,0,1,2.44,0
36,12,1,0,1,1,2.75,1
36,13,1,1,1,1,1.88,1
36,14,1,0,1,0,5.09,0
36,15,1,0,0,1,2.99,0
36,16,1,1,1,1,4.25,1
36,17,1,0,1,1,1.98,1
36,18,1,1,1,1,2.07,1
36,19,1,1,0,1,2.77,0
36,20,1,1,1,1,3.35,1
36,21,1,0,1,1,2.82,1
36,22,1,0,1,1,3.21,1
36,23,1,1,1,0,1.92,0
36,24,1,1,0,0,1.82,1
36,25,1,0,0,1,2.85,0
36,26,1,0,0,0,3.73,1
36,27,1,1,0,1,2.24,0
36,28,1,0,1,0,3.18,0
36,29,1,1,1,1,2.68,1
36,30,1,1,0,1,2.38,0
36,31,1,1,0,0,3.59,1
36,32,1,0,1,0,2.39,0
36,33,1,1,1,1,4.71,1
36,34,1,1,0,1,2.5,0
36,35,1,0,0,1,3.5,0
36,36,1,0,0,0,3.33,1
36,37,1,1,1,1,2.22,1
36,38,1,1,0,0,4,1
36,39,1,1,1,1,2.86,1
36,40,1,1,0,1,2.39,0
36,41,1,1,0,1,2.94,0
36,42,1,1,0,0,3.8,1
36,43,1,0,1,1,4.08,1
36,44,1,0,0,1,2.96,0
36,45,1,1,0,1,3.37,0
36,46,1,0,1,1,3.79,1
36,47,1,1,1,1,3.1,1
36,48,1,1,0,0,3.02,1
36,50,1,0,1,1,3.54,1
36,51,1,1,1,1,3.3,1
36,52,1,0,0,0,2.44,1
36,53,1,1,1,1,2.7,1
36,54,1,1,0,1,2.07,0
36,55,1,0,0,1,3.11,0
36,56,1,0,1,0,4.15,0
36,57,1,0,1,0,2.58,0
36,58,1,1,0,1,2.76,0
36,59,1,1,1,1,4.96,1
37,1,1,0,0,1,5.45,0
37,2,1,0,1,1,7.12,1
37,3,1,0,1,1,4.58,1
37,4,1,1,0,1,3.68,0
37,5,1,0,0,0,3.46,1
37,6,1,0,1,0,3.85,0
37,7,1,0,1,1,5.12,1
37,8,1,1,1,0,3.97,0
37,9,1,0,0,0,6.7,1
37,10,1,0,1,0,5.09,0
37,11,1,1,1,1,2.63,1
37,12,1,1,0,1,4.7,0
37,13,1,0,0,1,5.58,0
37,14,1,1,0,1,7.1,0
37,15,1,1,1,0,6.4,0
37,16,1,1,0,0,4.74,1
37,17,1,1,1,1,3.38,1
37,18,1,1,0,1,7.4,0
37,19,1,0,0,0,7.02,1
37,20,1,1,1,0,3.75,0
37,21,1,0,0,1,4.15,0
37,22,1,1,1,0,3.65,0
37,23,1,0,1,1,2.53,1
37,24,1,0,0,0,6.55,1
37,25,1,0,1,0,3.2,0
37,26,1,0,1,1,3.26,1
37,27,1,1,1,1,2.99,1
37,28,1,0,0,1,4.43,0
37,29,1,0,0,0,3.63,1
37,30,1,0,0,1,3.9,0
37,31,1,1,0,1,2.75,0
37,32,1,0,1,0,4.29,0
37,33,1,1,1,1,4.62,1
37,34,1,0,1,1,5.63,1
37,35,1,0,1,0,4.99,0
37,36,1,1,0,1,3.9,0
37,37,1,1,0,1,7.36,0
37,39,1,0,1,1,5.05,1
37,40,1,1,0,0,3.94,1
37,41,1,1,1,1,4.15,1
37,42,1,1,1,0,3.12,0
37,43,1,0,1,1,3.65,1
37,44,1,1,1,1,3.47,1
37,45,1,0,0,1,3.39,0
37,46,1,1,1,1,3.45,1
37,47,1,1,1,1,2.13,1
37,48,1,0,0,1,3.52,0
37,49,1,1,0,1,3.82,0
37,50,1,0,1,1,3.51,1
37,51,1,1,1,1,2.23,1
37,52,1,1,1,1,2.13,1
37,53,1,0,0,0,5.01,1
37,54,1,1,0,0,2.47,1
37,55,1,1,0,1,4.57,0
37,56,1,0,0,0,6.04,1
37,57,1,0,0,1,2.35,0
37,58,1,1,0,0,2.19,1
37,59,1,0,1,0,3.67,0
37,60,1,1,0,0,2.65,1
38,1,1,1,1,1,2.53,1
38,2,1,0,0,1,4.27,0
38,3,1,1,0,1,4.74,0
38,4,1,1,1,0,6.7,0
38,5,1,1,1,1,2.84,1
38,6,1,0,0,1,3.53,0
38,7,1,1,0,1,3.23,0
38,8,1,0,0,1,4.42,0
38,9,1,1,0,0,3.35,1
38,10,1,0,0,1,3.83,0
38,11,1,0,0,0,4.13,1
38,12,1,0,1,1,5.02,1
38,13,1,1,0,1,4.04,0
38,14,1,1,0,0,4.8,1
38,15,1,1,0,0,4.98,1
38,16,1,0,0,0,5.56,1
38,17,1,0,1,0,3.7,0
38,18,1,0,0,1,4.35,0
38,19,1,0,1,0,4.71,0
38,20,1,1,0,1,3.33,0
38,21,1,0,1,1,4.95,1
38,22,1,0,1,0,3.26,0
38,23,1,0,0,1,3.36,0
38,24,1,1,1,0,3.58,0
38,25,1,0,0,1,7.48,0
38,26,1,0,0,1,3.38,0
38,27,1,1,1,0,3.99,0
38,28,1,0,0,1,2.45,0
38,29,1,1,1,1,3.82,1
38,30,1,1,0,1,4.07,0
38,31,1,0,1,1,7.55,1
38,32,1,1,0,1,7.01,0
38,33,1,0,1,0,3.2,0
38,34,1,1,1,1,4.36,1
38,35,1,1,1,1,3.56,1
38,36,1,0,0,1,4.95,0
38,37,1,1,1,1,9.2,1
38,38,1,0,1,0,2.72,0
38,39,1,1,0,1,2.38,0
38,40,1,0,0,0,4.65,1
38,41,1,1,1,1,4.91,1
38,42,1,0,1,0,5.93,0
38,43,1,0,1,0,4.77,0
38,44,1,1,0,1,7.99,0
38,45,1,1,0,0,2.14,1
38,46,1,0,1,1,2.33,1
38,47,1,1,0,1,5.4,0
38,48,1,1,1,0,8.14,0
38,49,1,1,1,1,4.53,1
38,50,1,0,1,1,3.5,1
38,51,1,1,1,0,4.97,0
38,52,1,0,0,1,1.99,0
38,53,1,1,1,1,5.4,1
38,55,1,0,0,1,2.35,0
38,56,1,0,1,1,3.92,1
38,57,1,1,0,0,5.71,1
38,58,1,0,1,0,1.85,0
38,59,1,1,0,1,4.62,0
38,60,1,0,1,1,2.97,1
39,1,1,1,0,1,3.6,0
39,2,1,0,1,1,2.05,1
39,4,1,0,1,0,1.88,0
39,5,1,0,1,0,5.32,0
39,6,1,1,1,0,2.95,0
39,7,1,1,1,1,2,1
39,8,1,0,1,1,2.7,1
39,9,1,0,1,0,1.43,0
39,10,1,1,1,1,1.93,1
39,11,1,1,1,1,2.15,1
39,12,1,1,0,1,2.12,0
39,13,1,0,1,1,2.19,1
39,14,1,0,0,0,4.19,1
39,15,1,1,1,1,3.38,1
39,16,1,1,1,1,2.03,1
39,17,1,1,1,1,2.13,1
39,18,1,0,1,1,2.36,1
39,19,1,0,0,1,4.93,0
39,20,1,0,0,1,3.86,0
39,21,1,0,1,1,3.46,1
39,22,1,0,0,0,2.67,1
39,23,1,0,0,1,3.17,0
39,24,1,0,0,1,2.4,0
39,25,1,1,0,1,2.17,0
39,26,1,1,1,0,3.14,0
39,27,1,1,1,1,3.86,1
39,28,1,0,0,0,3.48,1
39,29,1,1,0,1,3.32,0
39,30,1,1,0,1,2.43,0
39,31,1,1,0,0,4.68,1
39,32,1,0,1,0,2.27,0
39,33,1,0,1,1,3.07,1
39,34,1,0,1,1,3.07,1
39,35,1,1,1,1,2.95,1
39,36,1,1,1,0,2.47,0
39,37,1,1,1,1,3.87,1
39,38,1,1,0,1,4.31,0
39,39,1,0,0,0,4.35,1
39,40,1,1,0,1,2.73,0
39,41,1,0,0,1,2.2,0
39,42,1,0,0,1,2.22,0
39,43,1,0,0,1,3.43,0
39,44,1,0,1,1,2.7,1
39,45,1,0,0,0,2.94,1
39,46,1,0,0,0,1.6,1
39,47,1,1,0,0,5.25,1
39,48,1,0,0,0,3.35,1
39,49,1,1,0,0,1.87,1
39,50,1,0,0,1,2.16,0
39,51,1,0,1,1,2.45,1
39,52,1,1,1,0,2.6,0
39,53,1,1,1,0,3.1,0
39,54,1,1,0,0,4.08,1
39,55,1,1,1,1,3.82,1
39,56,1,1,0,1,4.23,0
39,57,1,0,1,0,3.53,0
39,58,1,0,1,1,2.12,1
39,59,1,1,0,0,2.46,1
39,60,1,1,0,1,3.31,0
40,1,1,0,0,1,3.13,0
40,2,1,0,1,1,3.96,1
40,3,1,1,1,1,2.2,1
40,4,1,0,0,1,5.67,0
40,5,1,0,0,1,3.67,0
40,6,1,1,0,0,2.73,1
40,7,1,0,0,1,4.58,0
40,8,1,0,1,0,4.85,0
40,9,1,0,1,1,6.11,1
40,10,1,0,1,0,5.57,0
40,11,1,0,0,1,2.92,0
40,12,1,1,1,1,2.52,1
40,13,1,0,0,1,6.73,0
40,14,1,1,0,1,3.59,0
40,15,1,1,0,0,5.27,1
40,16,1,0,0,0,7.56,1
40,17,1,0,1,1,4.16,1
40,18,1,0,0,0,3.87,1
40,19,1,1,1,0,4.01,0
40,20,1,1,0,1,2.57,0
40,21,1,1,1,1,2.86,1
40,22,1,1,0,1,3.55,0
40,23,1,1,1,1,4.24,1
40,24,1,1,1,1,3.31,1
40,25,1,1,0,0,4.3,1
40,26,1,0,0,1,5.16,0
40,27,1,0,1,0,3.49,0
40,28,1,0,0,1,5.1,0
40,29,1,1,0,0,3.91,1
40,30,1,1,0,0,3.18,1
40,31,1,0,0,0,6.32,1
40,32,1,1,1,0,4.97,0
40,33,1,0,1,1,4.03,1
40,34,1,0,0,1,7.29,0
40,35,1,1,1,0,3.49,0
40,36,1,1,0,1,3.58,0
40,37,1,1,1,0,3.79,0
40,39,1,1,1,1,4.88,1
40,40,1,0,1,1,7.87,1
40,41,1,0,0,1,4.47,0
40,42,1,0,1,0,4.76,0
40,43,1,0,0,0,7.75,1
40,44,1,0,1,0,5.97,0
40,45,1,1,0,1,2.57,0
40,47,1,1,1,1,2.38,1
40,48,1,1,0,1,3.21,0
40,49,1,1,0,1,2.72,0
40,50,1,0,1,0,4.61,0
40,51,1,1,1,1,2.99,1
40,53,1,0,1,0,6.18,0
40,54,1,1,0,1,4.79,0
40,55,1,0,0,0,5.94,1
40,56,1,1,0,0,4.6,1
40,57,1,0,1,1,6.48,1
40,58,1,1,1,0,5.29,0
40,59,1,1,1,1,3.8,1
40,60,1,0,1,1,5.26,1
41,1,1,1,1,1,2.38,1
41,2,1,0,0,1,2.66,0
41,3,1,1,1,0,2.17,0
41,4,1,0,1,0,3.67,0
41,5,1,0,0,0,2.67,1
41,6,1,1,1,1,1.75,1
41,7,1,1,0,1,2.37,0
41,8,1,1,0,0,2.37,1
41,11,1,0,0,0,2.42,1
41,12,1,1,1,1,2.26,1
41,13,1,0,0,1,2.49,0
41,14,1,1,0,0,3.05,1
41,15,1,1,0,1,2.52,0
41,16,1,1,0,0,3.5,1
41,17,1,1,1,1,2.83,1
41,18,1,1,1,1,1.9,1
41,19,1,1,1,0,3.08,0
41,20,1,0,0,1,1.98,0
41,21,1,1,0,1,1.82,0
41,22,1,1,1,1,2.55,1
41,23,1,0,0,0,2.72,1
41,24,1,0,1,1,2.59,1
41,25,1,0,0,0,2.58,1
41,26,1,0,0,1,3.55,0
41,27,1,1,1,1,2.88,1
41,28,1,0,1,1,3.12,1
41,29,1,0,1,1,2.79,1
41,30,1,0,0,1,2.58,0
41,31,1,0,0,1,4.2,0
41,32,1,0,1,1,3.74,1
41,33,1,1,1,1,2.47,1
41,34,1,0,0,1,2.99,0
41,35,1,1,1,1,3.8,1
41,36,1,0,1,1,3.68,1
41,37,1,0,1,0,3.4,0
41,38,1,0,1,1,3.58,1
41,39,1,1,0,1,2.95,0
41,40,1,0,1,0,3.13,0
41,41,1,1,0,1,2.24,0
41,42,1,0,1,0,2.72,0
41,43,1,1,0,1,2.64,0
41,44,1,0,1,1,2.58,1
41,45,1,0,0,0,3.53,1
41,46,1,1,1,0,2.66,0
41,47,1,1,0,0,2.88,1
41,48,1,1,0,1,1.74,0
41,49,1,0,0,1,3.21,0
41,50,1,1,1,1,2.63,1
41,51,1,1,0,1,3.64,0
41,52,1,1,0,1,2.29,0
41,53,1,0,0,1,2.79,0
41,54,1,0,0,1,3.13,0
41,55,1,1,0,1,1.91,0
41,56,1,1,1,1,2.1,1
41,57,1,0,1,0,2.82,0
41,58,1,1,1,1,1.89,1
41,59,1,0,1,1,2.9,1
41,60,1,0,1,1,2.21,1
42,1,1,0,0,0,2.8,1
42,2,1,1,1,1,3.95,1
42,3,1,0,1,1,3.67,1
42,4,1,1,1,1,2.18,1
42,5,1,0,1,0,4.15,0
42,6,1,1,0,0,2.49,1
42,7,1,1,0,1,2.99,0
42,8,1,1,1,0,3.82,0
42,9,1,1,1,0,2.12,0
42,10,1,0,0,0,4,1
42,11,1,1,0,0,2.5,1
42,12,1,0,0,1,2.49,0
42,13,1,1,1,0,2.26,0
42,14,1,0,0,0,4.16,1
42,15,1,0,1,1,3.63,1
42,16,1,1,1,1,3.07,1
42,17,1,0,0,0,3.8,1
42,18,1,0,1,1,2.03,1
42,19,1,1,1,1,1.87,1
42,20,1,1,0,1,1.62,0
42,21,1,1,1,0,2.1,0
42,22,1,0,1,0,2.62,0
42,23,1,0,1,1,3.6,1
42,24,1,1,0,0,2.81,1
42,25,1,0,0,1,2.95,0
42,26,1,0,1,0,3.05,0
42,27,1,0,1,0,2.9,0
42,28,1,1,0,0,3.02,1
42,29,1,1,0,0,2.65,1
42,30,1,0,0,0,3.95,1
42,31,1,0,1,0,4.09,0
42,32,1,0,0,1,2.24,0
42,34,1,1,0,1,2.74,0
42,35,1,1,0,1,3.52,0
42,36,1,0,0,0,4.9,1
42,37,1,1,1,0,2.47,0
42,38,1,0,0,1,2.87,0
42,39,1,0,1,1,3.3,1
42,40,1,1,0,1,3.26,0
42,42,1,1,1,0,2.68,0
42,43,1,1,0,1,2.83,0
42,44,1,0,1,0,4.13,0
42,45,1,0,0,1,2.61,0
42,46,1,1,1,0,2.7,0
42,47,1,0,1,1,2.25,1
42,48,1,0,1,1,5.48,1
42,49,1,1,0,1,2.55,0
42,50,1,1,1,0,3.67,0
42,51,1,0,1,1,3.22,1
42,52,1,1,0,1,2.41,0
42,53,1,0,0,0,2.93,1
42,54,1,1,1,1,2.88,1
42,55,1,1,0,1,2.14,0
42,56,1,1,0,0,2.94,1
42,57,1,0,0,0,3.54,1
42,58,1,0,0,1,2.72,0
42,59,1,0,0,1,5.05,0
42,60,1,1,1,1,2.18,1
43,2,1,1,0,1,6.29,0
43,3,1,0,0,0,5.58,1
43,4,1,1,0,1,5,0
43,5,1,1,0,1,3.43,0
43,6,1,0,1,1,6.95,1
43,7,1,0,1,1,6.85,1
43,8,1,0,1,1,6.55,1
43,9,1,1,1,0,6.32,0
43,11,1,0,0,0,5,1
43,12,1,1,0,0,3.27,1
43,13,1,0,1,1,8.33,1
43,14,1,0,0,1,4.68,0
43,15,1,1,1,0,4.01,0
43,16,1,0,1,0,6.48,0
43,18,1,0,0,0,5.88,1
43,19,1,1,0,0,7.1,1
43,20,1,0,1,0,4.32,0
43,21,1,1,1,1,7.12,1
43,22,1,1,1,0,5.6,0
43,23,1,0,1,0,6.34,0
43,24,1,0,1,0,6.21,0
43,25,1,0,0,1,4.36,0
43,26,1,1,0,0,4.86,1
43,27,1,0,1,1,6.41,1
43,28,1,1,1,1,5.77,1
43,29,1,1,1,1,7.45,1
43,30,1,0,1,0,7.1,0
43,31,1,0,0,0,6.9,1
43,32,1,1,1,0,6.87,0
43,33,1,1,0,1,7.51,0
43,34,1,0,0,0,5.56,1
43,36,1,1,1,1,5.34,1
43,37,1,0,1,0,7.9,0
43,38,1,1,1,1,7.85,1
43,39,1,1,0,0,8,1
43,40,1,0,0,1,5.39,0
43,41,1,0,0,0,6.55,1
43,42,1,1,0,0,9.13,1
43,43,1,1,1,0,3.43,0
43,44,1,0,0,1,7.68,0
43,45,1,1,0,0,5.35,1
43,46,1,0,0,0,3.9,1
43,47,1,1,0,0,9.3,1
43,49,1,1,1,1,3.53,1
43,50,1,0,0,0,6,1
43,51,1,0,1,1,4.03,1
43,52,1,0,0,0,3.07,1
43,53,1,1,0,0,5.52,1
43,54,1,1,1,1,8.2,1
43,55,1,0,1,1,6.35,1
43,56,1,1,1,1,6.5,1
43,57,1,1,0,1,5.25,0
43,58,1,0,1,0,5.9,0
43,59,1,1,0,0,9.43,1
43,60,1,0,0,1,9.03,0
44,1,1,1,1,1,3.89,1
44,2,1,1,0,1,3.14,0
44,3,1,0,1,1,7.89,1
44,4,1,0,1,1,5.94,1
44,5,1,0,0,0,6.42,1
44,6,1,1,1,1,6.82,1
44,7,1,1,0,1,5.69,0
44,8,1,1,1,1,2.38,1
44,9,1,0,0,1,5.44,0
44,10,1,0,0,1,7.62,0
44,11,1,1,1,1,2.35,1
44,12,1,0,1,0,7.88,0
44,13,1,1,1,1,3.92,1
44,14,1,1,0,0,8.66,1
44,15,1,0,1,1,5.13,1
44,16,1,1,0,1,2.42,0
44,17,1,0,0,1,3.29,0
44,18,1,1,1,1,2.57,1
44,20,1,0,0,1,4.93,0
44,21,1,1,1,1,2.52,1
44,22,1,0,1,1,4.49,1
44,23,1,1,1,1,4.51,1
44,24,1,1,0,1,4.39,0
44,25,1,1,0,1,4.9,0
44,26,1,0,0,0,8.24,1
44,27,1,0,0,1,5.45,0
44,28,1,0,1,1,5.44,1
44,29,1,1,1,1,4.42,1
44,30,1,0,1,1,7.19,1
44,31,1,0,1,1,5.59,1
44,32,1,1,0,1,6.79,0
44,33,1,0,1,0,4.22,0
44,34,1,0,1,0,5.87,0
44,35,1,0,0,0,4.74,1
44,36,1,0,1,1,3.95,1
44,37,1,1,1,0,2.86,0
44,38,1,1,0,0,5.13,1
44,39,1,1,0,1,3.37,0
44,40,1,0,0,1,5.52,0
44,41,1,0,0,1,3.67,0
44,42,1,0,1,1,5.1,1
44,43,1,0,0,1,4.33,0
44,44,1,1,0,1,5.89,0
44,45,1,0,1,0,7.32,0
44,46,1,1,1,1,3.52,1
44,47,1,0,0,1,2.73,0
44,48,1,1,1,1,2.65,1
44,49,1,1,1,1,5.84,1
44,50,1,1,0,1,3.86,0
44,51,1,1,0,1,5.7,0
44,52,1,0,1,1,6.13,1
44,53,1,1,0,1,4.58,0
44,54,1,1,1,1,2.89,1
44,55,1,1,1,1,4.07,1
44,56,1,1,0,1,4.9,0
44,57,1,0,0,1,5.83,0
44,58,1,0,0,1,3.67,0
44,59,1,0,0,1,2.72,0
44,60,1,0,1,0,6.21,0
45,1,1,1,0,1,2.52,0
45,2,1,0,1,0,3.28,0
45,3,1,0,0,0,2.9,1
45,4,1,1,1,1,2.26,1
45,5,1,1,0,1,3.26,0
45,6,1,1,0,1,3.18,0
45,7,1,0,0,0,3.66,1
45,8,1,1,1,0,3.9,0
45,9,1,0,0,1,4.02,0
45,10,1,1,0,1,3.42,0
45,11,1,1,1,0,7.1,0
45,12,1,1,1,1,3.28,1
45,13,1,0,1,0,6.15,0
45,14,1,1,1,1,2.53,1
45,15,1,0,0,0,4.38,1
45,16,1,0,1,1,2.4,1
45,17,1,0,0,0,2.73,1
45,19,1,1,0,1,3.94,0
45,20,1,1,0,1,2.74,0
45,21,1,1,0,1,3.14,0
45,22,1,0,1,0,5.13,0
45,23,1,0,0,1,4.02,0
45,24,1,0,1,0,2.41,0
45,25,1,0,0,1,4.89,0
45,26,1,1,0,1,3.15,0
45,27,1,1,1,0,3.5,0
45,28,1,0,1,1,4.67,1
45,29,1,0,0,1,4.6,0
45,30,1,1,0,1,2.69,0
45,31,1,0,0,0,5.85,1
45,33,1,0,0,1,3.59,0
45,34,1,1,1,0,4.41,0
45,35,1,1,1,0,3.97,0
45,36,1,0,0,0,3.68,1
45,37,1,0,1,1,3.78,1
45,38,1,0,1,1,3.65,1
45,39,1,1,1,1,3.52,1
45,40,1,0,0,1,2.25,0
45,41,1,0,1,1,3.88,1
45,42,1,1,1,1,4.09,1
45,43,1,1,1,0,3.5,0
45,44,1,1,0,1,3.81,0
45,45,1,0,1,0,7.54,0
45,46,1,0,0,1,4.31,0
45,47,1,1,0,1,3.69,0
45,48,1,0,0,1,3.6,0
45,49,1,1,1,1,3.37,1
45,50,1,0,1,1,2.57,1
45,51,1,0,1,0,2.7,0
45,52,1,0,1,1,4.24,1
45,53,1,0,0,0,5.15,1
45,54,1,1,0,0,4.69,1
45,55,1,0,1,1,2.07,1
45,56,1,1,0,1,2.62,0
45,57,1,1,1,1,3.58,1
45,58,1,1,0,1,4.79,0
45,59,1,1,0,1,4.88,0
45,60,1,0,1,0,2.97,0
46,1,1,1,0,1,1.96,0
46,2,1,0,0,0,2.82,1
46,3,1,1,1,1,2.57,1
46,4,1,1,0,1,5.01,0
46,5,1,0,0,1,2.35,0
46,6,1,1,1,1,2.53,1
46,7,1,1,1,1,1.42,1
46,8,1,0,0,0,3.65,1
46,9,1,0,1,0,2.83,0
46,10,1,1,0,1,2.05,0
46,11,1,1,1,1,2.43,1
46,12,1,1,1,1,1.82,1
46,13,1,1,1,1,2.85,1
46,14,1,0,0,0,3.08,1
46,15,1,0,0,1,2.98,0
46,16,1,0,1,0,1.58,0
46,17,1,1,0,1,3.36,0
46,18,1,0,0,0,2.21,1
46,19,1,1,0,1,2.42,0
46,20,1,0,1,1,3.47,1
46,21,1,1,0,0,2.81,1
46,22,1,0,1,0,3.69,0
46,23,1,1,1,1,1.98,1
46,24,1,0,0,0,3.71,1
46,25,1,1,1,1,3.28,1
46,26,1,0,1,0,3.17,0
46,28,1,1,1,1,2.28,1
46,29,1,1,0,1,1.67,0
46,30,1,1,0,1,2.03,0
46,31,1,0,0,1,2.73,0
46,32,1,1,1,1,2.35,1
46,33,1,0,1,1,2.1,1
46,34,1,1,0,1,2.03,0
46,35,1,0,1,0,2.22,0
46,36,1,0,0,0,3.54,1
46,37,1,1,1,0,3.2,0
46,38,1,0,0,1,3.03,0
46,39,1,1,1,0,3.02,0
46,40,1,1,0,1,3.15,0
46,41,1,0,1,0,2.58,0
46,42,1,0,1,1,3.6,1
46,43,1,0,1,1,2.89,1
46,44,1,0,0,1,1.43,0
46,45,1,0,1,0,3.69,0
46,46,1,1,0,1,1.87,0
46,47,1,1,1,1,1.62,1
46,48,1,0,0,1,2.05,0
46,49,1,0,1,1,1.74,1
46,50,1,0,1,1,3.01,1
46,51,1,1,0,0,3.73,1
46,52,1,1,0,0,2.32,1
46,53,1,1,1,1,2.8,1
46,54,1,1,0,1,1.82,0
46,55,1,0,0,0,2.3,1
46,56,1,1,1,1,2.08,1
46,58,1,0,1,0,2.59,0
46,59,1,0,1,0,3.13,0
46,60,1,0,0,1,3.85,0
47,1,1,0,0,0,5.52,1
47,2,1,1,1,1,5.18,1
47,4,1,1,1,1,3.26,1
47,5,1,0,0,0,6.23,1
47,6,1,0,0,1,5.06,0
47,7,1,1,0,1,3.45,0
47,8,1,1,1,1,4.11,1
47,9,1,0,1,1,3.32,1
47,10,1,0,1,1,3.78,1
47,11,1,0,0,1,3.86,0
47,12,1,0,1,1,5.98,1
47,13,1,1,1,0,5.2,0
47,14,1,0,1,0,3.18,0
47,15,1,1,1,0,7.16,0
47,16,1,1,0,0,5.52,1
47,17,1,0,0,1,4.93,0
47,18,1,1,0,1,3.67,0
47,19,1,1,0,0,5.77,1
47,20,1,1,0,1,2.72,0
47,21,1,1,1,0,8.37,0
47,22,1,0,0,0,4.25,1
47,23,1,1,1,1,6.83,1
47,24,1,1,0,1,5.88,0
47,25,1,1,0,1,3.05,0
47,26,1,1,0,0,5.08,1
47,27,1,0,1,1,4.51,1
47,28,1,0,0,1,4.31,0
47,29,1,1,1,1,3.83,1
47,30,1,1,1,1,3.74,1
47,31,1,0,1,1,8.15,1
47,32,1,0,0,1,6,0
47,33,1,0,1,1,4.6,1
47,34,1,0,0,1,6.37,0
47,35,1,0,1,1,7.43,1
47,36,1,1,0,1,8.21,0
47,37,1,1,0,1,7.7,0
47,38,1,1,1,1,4.04,1
47,39,1,1,1,0,3.85,0
47,40,1,1,1,1,7.08,1
47,41,1,0,0,1,3.96,0
47,42,1,0,1,1,5.87,1
47,44,1,1,0,1,4.29,0
47,46,1,0,1,1,4.11,1
47,47,1,0,1,1,5.21,1
47,48,1,0,0,1,4.28,0
47,49,1,0,1,1,3.65,1
47,50,1,1,0,0,4.03,1
47,51,1,1,1,1,6.75,1
47,53,1,0,1,1,4.98,1
47,54,1,1,1,1,7.08,1
47,55,1,1,1,0,5.2,0
47,56,1,0,0,1,3.22,0
47,57,1,0,1,1,7.73,1
47,58,1,0,0,0,6.47,1
47,59,1,0,1,1,7.28,1
47,60,1,0,0,1,3.78,0
48,1,1,1,0,1,5.38,0
48,2,1,0,1,0,4.93,0
48,3,1,1,1,1,4.4,1
48,4,1,0,1,1,3.35,1
48,6,1,1,1,1,4.07,1
48,7,1,0,0,0,8.15,1
48,8,1,1,0,1,8.63,0
48,9,1,0,1,1,5.15,1
48,10,1,1,0,1,4.73,0
48,13,1,1,0,0,6.07,1
48,14,1,0,0,0,6.43,1
48,15,1,1,1,0,4.88,0
48,16,1,0,1,1,3.13,1
48,17,1,1,1,1,3.89,1
48,19,1,1,1,1,4.85,1
48,20,1,1,0,1,2.17,0
48,21,1,1,1,0,4.81,0
48,22,1,0,1,1,4.15,1
48,23,1,1,1,0,2.5,0
48,25,1,1,1,0,6.83,0
48,26,1,0,1,0,5.02,0
48,27,1,0,1,1,5.8,1
48,28,1,0,0,1,6.18,0
48,29,1,0,1,1,3.32,1
48,30,1,0,1,0,6.55,0
48,31,1,1,0,1,4.43,0
48,32,1,1,1,0,4.02,0
48,35,1,1,1,0,7.15,0
48,36,1,0,1,1,2.82,1
48,37,1,0,0,0,5.75,1
48,38,1,0,1,1,5.5,1
48,39,1,1,1,1,5.08,1
48,41,1,0,0,0,6.56,1
48,42,1,1,0,1,3.22,0
48,43,1,0,0,1,5.2,0
48,44,1,1,0,1,3.49,0
48,45,1,0,1,1,5.18,1
48,47,1,0,1,0,4.77,0
48,48,1,1,1,0,4.08,0
48,49,1,1,0,1,4.67,0
48,50,1,0,0,1,3.97,0
48,51,1,0,0,0,3.93,1
48,53,1,1,0,1,3.83,0
48,54,1,0,0,0,6.98,1
48,55,1,1,0,1,4.25,0
48,56,1,1,0,0,7.61,1
48,57,1,0,0,0,2.64,1
48,58,1,0,0,1,5.36,0
48,59,1,0,0,1,5.57,0
48,60,1,0,1,0,2.87,0
49,1,1,1,0,0,5.33,1
49,2,1,0,0,0,1.92,1
49,3,1,1,1,1,2.73,1
49,4,1,0,0,0,3.35,1
49,5,1,1,1,1,2.74,1
49,6,1,0,0,0,2.74,1
49,7,1,0,1,0,3.01,0
49,8,1,0,1,1,2.23,1
49,9,1,0,0,1,3.16,0
49,10,1,0,1,0,2.67,0
49,11,1,0,0,0,3.53,1
49,12,1,0,0,1,2.27,0
49,13,1,1,1,1,2.42,1
49,14,1,0,1,0,3,0
49,15,1,0,0,0,3,1
49,16,1,1,1,1,2.15,1
49,17,1,1,0,1,1.86,0
49,18,1,1,1,0,1.93,0
49,19,1,1,0,1,1.82,0
49,20,1,1,1,1,3.36,1
49,21,1,0,0,1,2.88,0
49,22,1,1,0,1,2.34,0
49,23,1,1,1,0,2.69,0
49,24,1,1,1,0,3.94,0
49,25,1,0,1,1,3.13,1
49,26,1,0,0,1,2.44,0
49,27,1,0,1,1,3.09,1
49,28,1,0,1,1,4.31,1
49,29,1,1,0,1,3.59,0
49,30,1,1,0,1,3.84,0
49,31,1,1,1,0,2.3,0
49,32,1,0,1,1,3,1
49,33,1,1,1,1,5.03,1
49,34,1,0,0,0,2.58,1
49,35,1,1,0,1,3.42,0
49,36,1,0,1,1,2.78,1
49,37,1,1,1,0,2.11,0
49,38,1,1,0,1,2.24,0
49,39,1,1,0,1,1.82,0
49,40,1,1,1,1,3.7,1
49,41,1,0,0,0,2.78,1
49,42,1,0,1,0,2.36,0
49,43,1,0,0,0,4.18,1
49,45,1,1,0,0,3.96,1
49,46,1,0,1,0,3,0
49,47,1,0,1,0,2.69,0
49,48,1,0,0,1,3.49,0
49,49,1,0,1,1,2.83,1
49,50,1,0,0,0,1.89,1
49,51,1,1,0,1,2.58,0
49,52,1,1,0,1,1.78,0
49,53,1,1,1,1,1.63,1
49,54,1,1,0,1,3.55,0
49,55,1,0,1,0,2.15,0
49,56,1,1,1,0,2.45,0
49,57,1,1,1,1,3.94,1
49,58,1,0,0,0,3.57,1
49,59,1,0,1,0,1.66,0
49,60,1,1,0,1,3.42,0
50,1,1,0,0,0,3.81,1
50,2,1,0,1,0,3.29,0
50,3,1,0,0,1,3.6,0
50,4,1,0,1,1,2.2,1
50,5,1,1,0,1,2.63,0
50,6,1,0,0,1,2.57,0
50,7,1,1,0,0,3.72,1
50,8,1,1,1,1,2.29,1
50,9,1,0,1,1,3.24,1
50,10,1,0,0,1,3.54,0
50,11,1,1,0,1,4.9,0
50,12,1,1,0,0,2.41,1
50,13,1,1,0,1,2.64,0
50,14,1,0,1,0,4.85,0
50,15,1,0,1,1,2.87,1
50,16,1,0,0,1,3.52,0
50,17,1,1,1,1,2.65,1
50,18,1,0,1,0,2.16,0
50,19,1,0,0,0,2.35,1
50,20,1,1,0,1,2.13,0
50,21,1,1,0,0,3.97,1
50,22,1,0,0,1,4.57,0
50,23,1,0,1,0,5.28,0
50,24,1,1,0,1,3.4,0
50,25,1,1,1,1,2.11,1
50,26,1,1,0,0,4.48,1
50,27,1,1,1,0,4.23,0
50,28,1,0,1,1,4.01,1
50,29,1,0,1,1,3.23,1
50,30,1,0,1,1,3.22,1
50,31,1,1,1,1,3,1
50,32,1,0,0,1,2.22,0
50,33,1,1,0,1,4.58,0
50,34,1,1,1,1,2.53,1
50,35,1,0,0,1,3.63,0
50,36,1,1,0,1,2.29,0
50,38,1,0,1,1,2.23,1
50,39,1,1,0,1,1.92,0
50,40,1,1,1,1,2.28,1
50,41,1,1,1,1,2.65,1
50,42,1,0,0,0,3.37,1
50,43,1,0,1,1,2.34,1
50,44,1,0,0,1,2.55,0
50,45,1,0,1,0,4.47,0
50,46,1,0,0,1,2.14,0
50,47,1,1,1,1,1.96,1
50,48,1,1,1,1,1.87,1
50,49,1,1,1,1,1.71,1
50,50,1,1,0,1,1.87,0
50,51,1,0,0,0,5.32,1
50,52,1,0,0,1,2.06,0
50,53,1,1,1,1,1.68,1
50,54,1,1,1,0,1.77,0
50,55,1,1,0,0,4.35,1
50,56,1,0,0,1,2.57,0
50,57,1,0,1,1,2.21,1
50,58,1,0,1,0,3.67,0
50,59,1,1,1,1,2,1
50,60,1,1,0,1,1.3,0
51,1,1,1,0,1,2.21,0
51,2,1,1,0,1,2.55,0
51,3,1,0,1,0,2.21,0
51,4,1,0,1,0,4.25,0
51,5,1,1,1,1,1.74,1
51,6,1,1,1,1,3.06,1
51,7,1,1,1,1,1.9,1
51,8,1,1,0,1,2.9,0
51,9,1,0,1,0,5.81,0
51,10,1,0,1,0,2.45,0
51,11,1,0,0,0,3.81,1
51,12,1,0,1,0,3.22,0
51,13,1,0,0,1,3.37,0
51,14,1,0,1,1,4.05,1
51,15,1,1,0,1,4.25,0
51,16,1,1,0,1,2.62,0
51,17,1,1,0,1,2.95,0
51,18,1,0,1,1,3.26,1
51,19,1,0,0,1,4.49,0
51,20,1,0,1,0,4.83,0
51,21,1,1,1,0,5.9,0
51,22,1,0,1,0,4.7,0
51,23,1,0,0,1,3.17,0
51,24,1,1,0,1,2.68,0
51,25,1,0,0,0,3.4,1
51,26,1,1,1,1,2.41,1
51,27,1,0,0,0,5.17,1
51,28,1,1,0,1,3.25,0
51,29,1,1,1,1,2.98,1
51,30,1,1,0,1,4.26,0
51,31,1,0,0,1,5.27,0
51,32,1,1,1,1,2.03,1
51,33,1,1,1,1,2.4,1
51,34,1,1,1,1,1.82,1
51,35,1,0,1,0,4.71,0
51,36,1,0,0,1,2.35,0
51,37,1,1,0,1,4.78,0
51,38,1,1,0,1,2.88,0
51,39,1,1,0,1,2.33,0
51,40,1,1,0,0,5.32,1
51,41,1,0,0,1,3.17,0
51,42,1,1,1,1,2.05,1
51,43,1,1,1,0,5.12,0
51,44,1,0,0,0,3.92,1
51,45,1,0,0,1,6.16,0
51,46,1,0,1,1,4.45,1
51,47,1,0,1,0,4.27,0
51,48,1,1,1,1,2.48,1
51,49,1,0,0,0,6.34,1
51,50,1,1,1,1,2.45,1
51,51,1,0,1,1,2.5,1
51,52,1,0,0,0,3.02,1
51,54,1,0,1,1,3.7,1
51,55,1,0,0,0,2.66,1
51,56,1,1,0,0,5.87,1
51,57,1,1,0,1,1.87,0
51,58,1,0,0,0,5.03,1
51,59,1,0,1,0,5.03,0
51,60,1,1,1,1,3,1
52,1,1,1,0,1,5.36,0
52,2,1,1,0,0,5.47,1
52,3,1,1,0,1,7.45,0
52,4,1,1,0,1,3.7,0
52,5,1,0,1,1,5.42,1
52,6,1,0,0,1,4.4,0
52,7,1,0,1,1,3.88,1
52,8,1,0,0,1,6.79,0
52,9,1,0,0,1,7.95,0
52,10,1,1,0,1,5.86,0
52,11,1,1,1,1,5.73,1
52,12,1,0,0,0,3.95,1
52,13,1,0,1,0,6.92,0
52,15,1,0,1,0,7.58,0
52,16,1,0,1,1,3.25,1
52,18,1,1,1,0,7.99,0
52,19,1,0,1,1,8.25,1
52,20,1,0,0,1,4.97,0
52,22,1,0,0,0,5.96,1
52,23,1,1,1,1,8.4,1
52,24,1,1,0,1,3.67,0
52,25,1,0,1,0,7.54,0
52,26,1,1,1,1,6.34,1
52,27,1,1,0,1,4.14,0
52,28,1,1,1,1,5.05,1
52,29,1,0,0,0,6.85,1
52,30,1,1,0,1,5.21,0
52,31,1,1,0,1,3.62,0
52,32,1,0,1,0,5.62,0
52,33,1,1,1,1,3.56,1
52,34,1,0,1,0,7.87,0
52,35,1,1,0,0,6.59,1
52,36,1,0,0,0,8.35,1
52,37,1,1,1,1,5.27,1
52,38,1,1,0,0,3.41,1
52,39,1,0,1,0,4.53,0
52,40,1,0,1,0,5.02,0
52,42,1,0,1,0,7.24,0
52,43,1,1,0,0,7.2,1
52,44,1,0,0,1,6.45,0
52,45,1,1,1,1,3.16,1
52,46,1,0,0,1,5.34,0
52,47,1,1,1,0,6.15,0
52,48,1,0,0,1,6.6,0
52,49,1,1,1,1,8.34,1
52,50,1,0,0,1,5.41,0
52,51,1,0,0,1,3.83,0
52,52,1,1,0,0,6.33,1
52,53,1,1,1,1,4,1
52,54,1,1,1,1,6.31,1
52,55,1,1,0,1,6.87,0
52,56,1,1,1,0,6.62,0
52,57,1,0,1,0,7.79,0
52,58,1,1,1,1,4.69,1
52,59,1,0,0,0,4.84,1
52,60,1,1,1,1,4.94,1
53,1,1,0,0,1,4.38,0
53,2,1,0,1,1,5.61,1
53,3,1,1,0,0,6.24,1
53,5,1,1,1,1,5.67,1
53,6,1,0,1,1,4.85,1
53,7,1,1,0,1,4.24,0
53,8,1,0,0,1,5.43,0
53,9,1,1,1,0,5.43,0
53,10,1,0,1,1,3.07,1
53,11,1,1,0,0,6.86,1
53,12,1,0,0,1,7.55,0
53,13,1,0,1,1,5.16,1
53,14,1,0,0,0,5.35,1
53,15,1,1,1,0,3.82,0
53,16,1,1,0,1,2.97,0
53,17,1,1,1,1,4.55,1
53,18,1,0,0,0,6.45,1
53,19,1,1,0,1,4.38,0
53,20,1,1,1,1,3.38,1
53,21,1,1,1,1,5.91,1
53,22,1,1,0,1,4.51,0
53,23,1,0,0,0,6.33,1
53,24,1,0,0,1,5.41,0
53,25,1,0,0,1,6.37,0
53,26,1,0,1,0,3.34,0
53,27,1,0,1,1,3.19,1
53,28,1,0,1,1,8.5,1
53,29,1,0,0,1,4.7,0
53,30,1,0,0,1,4.07,0
53,31,1,0,1,1,4.34,1
53,32,1,0,1,0,5.61,0
53,33,1,0,0,0,3.12,1
53,34,1,0,0,1,6.3,0
53,35,1,1,0,0,3.79,1
53,36,1,1,1,1,6.87,1
53,37,1,1,1,1,3.88,1
53,38,1,1,0,1,4.05,0
53,39,1,1,1,1,5.99,1
53,40,1,0,1,1,4.53,1
53,41,1,1,1,1,2.56,1
53,42,1,1,0,1,4.77,0
53,43,1,1,1,1,4.75,1
53,45,1,0,1,1,2.43,1
53,46,1,0,1,1,5.87,1
53,47,1,1,0,1,3.87,0
53,48,1,1,1,0,2.84,0
53,49,1,1,1,0,2.83,0
53,50,1,1,0,1,4.25,0
53,51,1,1,1,1,2.16,1
53,53,1,1,0,1,3.32,0
53,55,1,1,0,1,2.75,0
53,56,1,0,0,1,3.91,0
53,57,1,0,1,0,4.9,0
53,58,1,0,1,1,6.49,1
53,59,1,1,0,1,3.24,0
53,60,1,0,1,1,4.14,1
54,1,1,0,0,0,9.65,1
54,2,1,0,1,1,6.08,1
54,4,1,1,0,1,6.76,0
54,6,1,0,1,0,7.67,0
54,8,1,1,0,0,8.5,1
54,10,1,0,1,1,8.16,1
54,11,1,1,1,1,8.41,1
54,12,1,0,1,1,9.66,1
54,13,1,0,0,0,9.45,1
54,14,1,1,0,1,9.5,0
54,18,1,1,1,1,7.36,1
54,21,1,0,1,1,8.77,1
54,22,1,0,1,1,9.72,1
54,24,1,0,0,0,8.3,1
54,26,1,1,0,1,9.21,0
54,27,1,0,0,1,7.78,0
54,28,1,1,1,1,6.44,1
54,30,1,0,0,1,7.54,0
54,31,1,1,1,0,8.68,0
54,32,1,0,1,1,8.09,1
54,33,1,0,1,0,5.54,0
54,36,1,0,0,1,7.44,0
54,39,1,0,1,1,8.85,1
54,42,1,1,1,1,7.72,1
54,44,1,0,1,0,8.47,0
54,47,1,0,0,1,8.18,0
54,48,1,1,0,1,7.58,0
54,49,1,0,0,1,4.83,0
54,52,1,1,1,0,5.55,0
54,54,1,1,0,1,7.93,0
54,55,1,1,1,1,7.67,1
54,57,1,0,1,1,7.98,1
55,1,1,0,1,0,1.46,0
55,2,1,0,0,0,2.12,1
55,3,1,0,1,0,2.22,0
55,4,1,1,1,1,2.65,1
55,5,1,1,1,1,3.19,1
55,6,1,1,0,0,2.89,1
55,7,1,0,0,0,1.63,1
55,8,1,1,0,1,1.86,0
55,9,1,0,0,1,2.45,0
55,10,1,0,0,1,3.23,0
55,11,1,1,0,1,1.92,0
55,12,1,1,0,1,1.54,0
55,13,1,1,1,1,1.37,1
55,14,1,1,1,1,1.6,1
55,15,1,1,0,1,2.23,0
55,16,1,1,0,1,1.31,0
55,17,1,1,1,1,2.21,1
55,18,1,0,1,0,3.36,0
55,19,1,0,0,0,4.28,1
55,20,1,1,1,1,1.48,1
55,21,1,1,0,1,1.88,0
55,22,1,1,1,0,2.2,0
55,23,1,0,1,0,2.52,0
55,24,1,1,1,1,1.74,1
55,25,1,0,1,1,4.1,1
55,26,1,0,0,0,2.6,1
55,27,1,1,0,1,2.33,0
55,28,1,0,1,0,2.27,0
55,29,1,0,1,0,2.49,0
55,30,1,0,1,1,2.35,1
55,31,1,0,1,1,4.18,1
55,32,1,0,0,1,2.01,0
55,33,1,1,1,1,2.97,1
55,34,1,0,0,1,2.89,0
55,35,1,0,1,1,2.12,1
55,36,1,1,0,1,1.65,0
55,37,1,0,1,0,2.68,0
55,38,1,0,0,0,1.92,1
55,39,1,1,0,1,2.14,0
55,40,1,0,0,1,2.68,0
55,41,1,1,1,0,3.65,0
55,42,1,0,0,0,2.25,1
55,43,1,0,0,1,2.79,0
55,44,1,0,1,1,2.13,1
55,45,1,1,1,1,1.26,1
55,46,1,0,1,0,2,0
55,47,1,1,0,0,3.37,1
55,48,1,1,1,1,1.76,1
55,49,1,1,1,1,1.39,1
55,51,1,0,0,0,1.43,1
55,52,1,1,1,1,4.19,1
55,53,1,0,1,0,2.27,0
55,54,1,1,1,1,1.3,1
55,55,1,1,0,1,3.1,0
55,57,1,1,0,1,3.65,0
55,58,1,0,1,0,4.23,0
55,59,1,0,0,0,2.5,1
56,1,1,0,1,1,3.58,1
56,2,1,1,0,1,3.85,0
56,3,1,0,1,0,2.97,0
56,4,1,0,0,0,3.5,1
56,5,1,0,1,1,3.8,1
56,6,1,1,0,1,2.98,0
56,7,1,0,1,0,3.13,0
56,8,1,0,0,1,3.95,0
56,9,1,1,1,1,2.52,1
56,10,1,0,0,1,3.07,0
56,11,1,0,0,1,2.06,0
56,12,1,1,0,1,3.32,0
56,13,1,1,0,1,2.87,0
56,14,1,0,0,0,3.02,1
56,15,1,1,1,0,3.78,0
56,16,1,1,1,1,2.45,1
56,17,1,0,0,1,3,0
56,18,1,0,0,0,3.83,1
56,19,1,0,1,1,4.71,1
56,20,1,1,0,0,2.98,1
56,21,1,0,1,0,3.33,0
56,22,1,1,0,1,2.43,0
56,23,1,0,0,0,3.58,1
56,24,1,1,1,1,3.22,1
56,25,1,1,1,1,2.25,1
56,26,1,1,0,1,3.98,0
56,27,1,1,1,0,2.83,0
56,28,1,1,1,1,1.84,1
56,29,1,0,1,1,3.62,1
56,30,1,0,0,0,3.81,1
56,31,1,0,1,1,2.84,1
56,32,1,0,0,1,2.02,0
56,33,1,1,1,0,2.7,0
56,34,1,0,0,1,3.97,0
56,35,1,0,0,1,3.9,0
56,36,1,1,0,1,4.17,0
56,37,1,1,0,1,3.25,0
56,38,1,0,1,1,2.76,1
56,39,1,0,1,0,2.44,0
56,40,1,1,1,0,3.65,0
56,41,1,1,0,0,4.79,1
56,42,1,1,0,0,3.57,1
56,43,1,0,1,1,3.32,1
56,44,1,1,1,0,3.44,0
56,45,1,1,0,1,3.24,0
56,46,1,1,0,1,3.42,0
56,47,1,1,0,1,2.37,0
56,48,1,0,1,1,3.11,1
56,49,1,0,1,0,3,0
56,50,1,0,1,0,5.41,0
56,52,1,0,1,1,3.64,1
56,53,1,1,1,1,2.22,1
56,54,1,1,1,0,3.27,0
56,55,1,1,0,1,3.11,0
56,56,1,0,0,1,3.59,0
56,57,1,1,1,1,3.11,1
56,58,1,0,0,1,5.13,0
56,59,1,0,0,1,4.08,0
56,60,1,1,1,1,2.05,1
57,1,1,0,0,0,2.71,1
57,2,1,1,1,1,3.82,1
57,3,1,1,1,0,4.12,0
57,4,1,0,0,1,3.25,0
57,5,1,1,0,1,3.79,0
57,6,1,1,1,1,3.7,1
57,7,1,1,0,0,4.52,1
57,8,1,1,1,0,3.41,0
57,9,1,1,1,1,2.01,1
57,10,1,1,1,1,2.17,1
57,11,1,0,0,1,2.42,0
57,12,1,1,0,0,2.17,1
57,13,1,0,0,0,4.12,1
57,14,1,0,1,0,4.63,0
57,15,1,0,0,0,4.04,1
57,16,1,1,0,1,4.23,0
57,17,1,1,1,1,5.44,1
57,18,1,0,0,1,3.76,0
57,19,1,0,0,1,4.05,0
57,20,1,1,0,0,2.87,1
57,21,1,0,1,0,3.87,0
57,22,1,1,0,0,1.59,1
57,23,1,1,0,1,3.79,0
57,24,1,1,1,1,5.2,1
57,25,1,0,0,0,2.73,1
57,26,1,0,1,1,4.62,1
57,27,1,0,0,0,3.03,1
57,28,1,1,1,1,4.87,1
57,29,1,1,1,1,4.37,1
57,30,1,0,1,0,2.44,0
57,31,1,0,1,1,3.54,1
57,32,1,1,0,1,4.56,0
57,33,1,1,1,0,4.6,0
57,34,1,0,1,0,2.78,0
57,35,1,0,0,1,4.38,0
57,36,1,1,0,0,2.26,1
57,37,1,1,0,1,2.81,0
57,38,1,0,1,1,3.59,1
57,39,1,1,1,1,1.84,1
57,42,1,1,0,0,2.66,1
57,43,1,0,1,1,3.87,1
57,44,1,0,1,1,6.27,1
57,45,1,0,0,1,3.57,0
57,46,1,0,0,0,3.51,1
57,47,1,1,1,1,2.97,1
57,48,1,0,1,1,4.03,1
57,50,1,1,1,1,1.55,1
57,51,1,0,1,0,1.61,0
57,52,1,0,1,0,2.32,0
57,54,1,1,1,0,5.24,0
57,55,1,1,0,0,3.5,1
57,56,1,0,0,0,2.8,1
57,57,1,1,0,1,2.4,0
57,58,1,0,1,0,2.25,0
57,59,1,0,1,0,2.59,0
57,60,1,0,0,0,2.44,1
58,1,1,0,1,0,2.97,0
58,2,1,0,0,0,3.35,1
58,3,1,1,1,1,2.1,1
58,4,1,1,0,1,2.98,0
58,5,1,0,0,0,3.82,1
58,6,1,0,1,0,3.84,0
58,7,1,0,1,1,3.34,1
58,8,1,0,1,1,2.93,1
58,9,1,1,1,1,1.95,1
58,10,1,1,1,1,1.85,1
58,11,1,0,0,1,4.84,0
58,12,1,1,0,1,4.33,0
58,14,1,1,0,1,2.75,0
58,15,1,1,1,1,1.8,1
58,16,1,0,1,0,3.43,0
58,17,1,0,1,0,4.49,0
58,18,1,1,1,1,1.51,1
58,19,1,0,1,0,3.98,0
58,20,1,1,0,1,2.93,0
58,21,1,0,0,1,3.06,0
58,22,1,1,1,1,1.83,1
58,23,1,0,0,0,3.95,1
58,24,1,0,0,0,3.1,1
58,25,1,1,0,1,3.63,0
58,26,1,0,1,0,4.18,0
58,27,1,1,1,1,2.03,1
58,28,1,0,1,0,3.09,0
58,29,1,1,1,1,4.98,1
58,30,1,0,0,0,4.03,1
58,31,1,1,0,0,3.37,1
58,32,1,0,1,1,2.87,1
58,33,1,1,1,1,4.61,1
58,34,1,0,0,1,2.48,0
58,35,1,1,1,1,2.16,1
58,36,1,0,0,1,2.62,0
58,37,1,1,1,1,2.04,1
58,38,1,0,0,1,5.81,0
58,39,1,0,0,1,4.95,0
58,40,1,1,1,1,2.22,1
58,41,1,0,1,0,4.41,0
58,42,1,1,0,1,2.13,0
58,43,1,1,0,1,1.93,0
58,44,1,0,1,1,3.69,1
58,45,1,1,1,1,1.96,1
58,46,1,0,1,0,3.45,0
58,47,1,0,1,0,2.69,0
58,48,1,1,0,1,2.37,0
58,49,1,0,0,0,3.83,1
58,50,1,1,0,1,2.05,0
58,51,1,0,0,1,5.22,0
58,52,1,0,0,0,3.9,1
58,53,1,1,0,1,1.98,0
58,54,1,1,0,1,1.72,0
58,55,1,1,1,1,3.97,1
58,56,1,1,0,1,3.47,0
58,57,1,0,0,0,3.09,1
58,58,1,1,0,1,2.5,0
58,59,1,0,1,0,3.61,0
58,60,1,1,1,1,3.79,1
59,1,1,1,0,1,1.29,0
59,2,1,0,1,0,2.63,0
59,3,1,0,0,1,1.39,0
59,5,1,1,1,0,2.34,0
59,6,1,0,1,0,2.48,0
59,7,1,1,0,1,1.26,0
59,8,1,0,0,1,3.72,0
59,9,1,1,1,1,1.26,1
59,10,1,0,0,0,2.75,1
59,11,1,0,1,1,2.52,1
59,12,1,1,1,1,1.5,1
59,13,1,1,1,0,1.55,0
59,14,1,0,0,1,1.37,0
59,15,1,1,0,1,1.12,0
59,16,1,0,1,0,2.2,0
59,17,1,0,1,1,2.12,1
59,20,1,1,1,1,1.97,1
59,21,1,1,0,1,3.5,0
59,22,1,1,0,1,1.45,0
59,23,1,1,1,1,1.72,1
59,24,1,0,0,1,1.4,0
59,25,1,0,0,1,2.41,0
59,26,1,0,0,1,2.07,0
59,27,1,1,0,1,2.49,0
59,29,1,0,0,0,2.52,1
59,31,1,1,1,1,1.71,1
59,32,1,0,0,1,2.37,0
59,33,1,1,1,1,1.43,1
59,34,1,1,0,1,1.63,0
59,35,1,0,0,1,1.74,0
59,36,1,1,0,0,2.3,1
59,37,1,0,0,1,2.17,0
59,38,1,0,0,1,3.6,0
59,39,1,1,1,1,1.74,1
59,40,1,0,1,1,2.23,1
59,42,1,0,0,1,1.4,0
59,43,1,1,0,1,1.88,0
59,44,1,1,0,0,3.21,1
59,45,1,0,0,1,3.33,0
59,46,1,1,1,0,2.39,0
59,47,1,0,1,1,1.38,1
59,48,1,1,1,1,1.58,1
59,49,1,1,1,1,1.13,1
59,50,1,1,0,1,1.4,0
59,52,1,1,0,1,1.9,0
59,53,1,0,1,1,1.33,1
59,54,1,0,1,1,1.93,1
59,55,1,0,1,1,1.66,1
59,56,1,0,1,0,2.1,0
59,57,1,0,1,1,1.55,1
59,58,1,1,0,1,1.41,0
59,59,1,1,0,1,1.22,0
60,1,1,1,0,1,8.7,0
60,2,1,0,1,1,9.05,1
60,4,1,1,0,1,3.1,0
60,5,1,1,0,1,6.31,0
60,7,1,1,1,1,4.15,1
60,8,1,0,1,0,4.39,0
60,9,1,0,0,0,6.9,1
60,10,1,0,0,1,5.8,0
60,11,1,0,0,1,5.44,0
60,12,1,0,1,1,4.31,1
60,13,1,1,1,1,3.8,1
60,14,1,0,1,0,4.03,0
60,15,1,1,0,1,5.75,0
60,16,1,1,0,0,4.35,1
60,17,1,0,1,0,5.43,0
60,18,1,1,0,0,8.07,1
60,19,1,1,0,0,5.98,1
60,20,1,0,1,1,4.62,1
60,21,1,1,1,1,3.92,1
60,22,1,1,0,1,4.18,0
60,23,1,1,1,1,3.42,1
60,24,1,1,0,1,3.65,0
60,25,1,0,1,0,5.71,0
60,26,1,1,1,1,6.28,1
60,27,1,1,1,0,7.08,0
60,28,1,0,0,1,3.93,0
60,29,1,1,1,0,7.01,0
60,30,1,0,1,0,5.31,0
60,31,1,1,1,1,5.13,1
60,32,1,1,1,1,8.11,1
60,33,1,1,0,1,2.87,0
60,34,1,0,0,1,8.43,0
60,35,1,1,0,1,3.66,0
60,36,1,0,1,0,4.54,0
60,37,1,1,0,1,3.47,0
60,38,1,0,0,0,5.31,1
60,40,1,0,1,1,3.85,1
60,41,1,0,1,1,5.18,1
60,42,1,1,1,1,3.43,1
60,43,1,0,0,1,8.04,0
60,44,1,1,0,1,5.03,0
60,45,1,0,1,1,6.35,1
60,46,1,0,1,1,4.55,1
60,47,1,0,0,0,6.77,1
60,48,1,0,0,1,7.07,0
60,49,1,1,1,0,6.4,0
60,50,1,0,0,1,3.75,0
60,51,1,0,0,0,6.45,1
60,52,1,1,1,1,5.88,1
60,53,1,1,1,1,4.75,1
60,54,1,1,1,0,4.72,0
60,55,1,0,1,0,5.39,0
60,56,1,1,1,1,5.35,1
60,57,1,1,0,1,4.73,0
60,58,1,0,0,1,7.31,0
60,59,1,0,0,0,5.19,1
60,60,1,0,1,0,5.32,0
61,1,1,0,1,0,2.25,0
61,2,1,0,0,0,2.52,1
61,3,1,0,1,1,2.77,1
61,4,1,0,1,1,2.63,1
61,5,1,0,0,0,3.77,1
61,6,1,1,0,0,3.39,1
61,7,1,0,1,0,2.96,0
61,8,1,0,0,0,2.73,1
61,9,1,0,0,0,2.54,1
61,10,1,1,1,0,2.49,0
61,11,1,0,0,0,2.65,1
61,12,1,0,0,0,2.94,1
61,13,1,1,0,1,2.96,0
61,14,1,1,1,0,3.44,0
61,15,1,0,1,1,2.74,1
61,16,1,0,0,0,2.59,1
61,17,1,0,1,1,4.03,1
61,18,1,1,0,0,2.52,1
61,19,1,1,1,1,2.97,1
61,20,1,1,1,1,2.35,1
61,21,1,1,1,1,3.25,1
61,22,1,1,1,0,2.42,0
61,23,1,0,0,1,3.1,0
61,24,1,1,0,1,2.32,0
61,25,1,0,1,1,2.91,1
61,26,1,1,0,0,3.22,1
61,27,1,0,1,1,3.27,1
61,28,1,1,1,0,1.92,0
61,29,1,0,1,1,2.37,1
61,30,1,1,1,0,2.47,0
61,31,1,1,0,1,3.8,0
61,32,1,1,1,0,2.24,0
61,33,1,0,1,0,2.95,0
61,34,1,1,0,1,3.08,0
61,35,1,0,0,0,2.47,1
61,36,1,0,1,0,3.39,0
61,37,1,0,1,0,2.53,0
61,38,1,1,1,0,2.95,0
61,39,1,1,0,1,4.95,0
61,40,1,1,1,1,2.95,1
61,41,1,1,0,1,3.2,0
61,42,1,1,0,1,3.93,0
61,43,1,0,1,0,2.13,0
61,44,1,1,1,1,2.57,1
61,45,1,1,0,0,3.29,1
61,46,1,0,0,0,2.71,1
61,47,1,0,0,0,2.91,1
61,48,1,0,0,0,2.37,1
61,49,1,1,0,0,2.64,1
61,50,1,1,1,1,3.48,1
61,51,1,1,0,1,3.62,0
61,52,1,0,0,0,2.3,1
61,53,1,0,0,0,2.81,1
61,54,1,0,1,0,2.97,0
61,55,1,0,1,0,2.18,0
61,56,1,1,1,0,2.84,0
61,57,1,0,0,0,2.1,1
61,58,1,1,0,1,2.77,0
61,59,1,1,1,0,3.27,0
61,60,1,1,0,0,1.97,1
62,1,1,1,1,1,2.93,1
62,2,1,0,1,1,5.02,1
62,3,1,1,0,0,4.32,1
62,4,1,1,1,1,4.64,1
62,5,1,0,0,0,6.11,1
62,6,1,0,1,0,5.67,0
62,7,1,1,1,1,4.99,1
62,9,1,0,0,0,4.37,1
62,10,1,0,0,0,4.79,1
62,11,1,0,1,0,3.98,0
62,12,1,0,0,0,5.91,1
62,13,1,1,1,1,2.92,1
62,14,1,0,1,1,4.26,1
62,15,1,1,0,1,3.77,0
62,16,1,0,0,0,6.44,1
62,17,1,0,1,1,4.25,1
62,18,1,1,0,1,4.35,0
62,19,1,1,0,1,6.16,0
62,20,1,1,1,1,2.12,1
62,21,1,1,1,0,4.84,0
62,22,1,0,1,1,4.02,1
62,23,1,1,0,1,3.24,0
62,25,1,0,0,0,4.15,1
62,26,1,1,0,1,2.43,0
62,27,1,1,1,0,5.05,0
62,28,1,1,1,1,2.33,1
62,29,1,1,0,1,2.75,0
62,30,1,0,0,1,3.62,0
62,31,1,0,0,1,5.5,0
62,32,1,0,0,0,4.57,1
62,33,1,0,0,0,5.76,1
62,34,1,0,1,1,4.85,1
62,35,1,1,0,1,3,0
62,36,1,0,0,1,4.1,0
62,37,1,0,1,1,3.6,1
62,38,1,1,1,0,3.9,0
62,39,1,1,1,1,3.32,1
62,40,1,1,1,1,3.51,1
62,41,1,1,0,1,2.96,0
62,42,1,0,1,0,4.84,0
62,43,1,0,1,0,4.32,0
62,44,1,1,0,0,3.1,1
62,45,1,0,1,0,3.55,0
62,46,1,0,1,1,6.91,1
62,47,1,1,0,1,2.75,0
62,49,1,0,0,0,7.63,1
62,50,1,1,0,1,4.2,0
62,51,1,1,1,1,3.84,1
62,52,1,1,0,1,2.59,0
62,53,1,0,1,0,3.59,0
62,54,1,0,0,1,2.73,0
62,55,1,1,1,0,8.73,0
62,56,1,0,0,0,4.1,1
62,57,1,0,0,0,4.2,1
62,58,1,1,1,1,2.06,1
62,59,1,0,1,1,8.2,1
62,60,1,0,1,0,6.15,0
63,1,1,1,1,1,3.5,1
63,2,1,0,0,0,2.76,1
63,3,1,0,0,1,3.51,0
63,4,1,1,0,1,5.48,0
63,5,1,0,0,0,7.21,1
63,6,1,1,1,1,2.45,1
63,7,1,1,0,1,3.02,0
63,8,1,0,1,0,5.5,0
63,9,1,0,1,1,3.21,1
63,10,1,0,0,0,3.83,1
63,11,1,0,0,1,5.86,0
63,12,1,1,0,1,4.7,0
63,13,1,0,0,0,7.83,1
63,14,1,0,1,0,5.77,0
63,15,1,0,1,0,3.68,0
63,16,1,0,1,1,2.69,1
63,17,1,1,0,0,4.56,1
63,18,1,1,0,1,4.53,0
63,19,1,0,0,0,6.38,1
63,20,1,1,1,1,4.5,1
63,21,1,0,1,1,5.18,1
63,22,1,0,0,1,3.05,0
63,23,1,0,0,1,9.01,0
63,24,1,1,0,0,5.13,1
63,25,1,0,0,1,2.94,0
63,26,1,0,1,1,3.74,1
63,27,1,1,1,1,3.3,1
63,28,1,1,1,1,6.64,1
63,29,1,1,1,1,2.97,1
63,30,1,1,1,1,5.19,1
63,31,1,0,1,0,3.17,0
63,32,1,0,1,0,4.22,0
63,33,1,1,1,0,3.55,0
63,34,1,0,0,1,2.98,0
63,35,1,1,0,0,3.5,1
63,36,1,1,1,1,2.77,1
63,37,1,1,0,1,3.05,0
63,38,1,1,0,0,3.73,1
63,39,1,0,1,1,4.45,1
63,40,1,1,0,1,2.15,0
63,41,1,1,0,1,4.11,0
63,42,1,1,0,1,2.4,0
63,43,1,0,1,1,6.53,1
63,44,1,0,0,1,2.87,0
63,45,1,0,1,1,3.72,1
63,47,1,0,0,1,8.27,0
63,48,1,1,0,1,5.45,0
63,49,1,0,1,0,4.15,0
63,50,1,0,0,1,5.43,0
63,51,1,1,1,1,2.77,1
63,52,1,1,1,1,2.91,1
63,53,1,1,0,0,4.31,1
63,54,1,0,0,0,4.92,1
63,55,1,1,1,0,4.47,0
63,56,1,1,1,0,5.84,0
63,57,1,0,1,1,4.38,1
63,58,1,0,1,0,6.61,0
63,59,1,1,1,1,2.7,1
63,60,1,1,0,1,2.78,0
64,2,1,0,0,1,3.94,0
64,3,1,0,0,0,3.5,1
64,4,1,1,0,1,2.66,0
64,5,1,0,1,0,4.5,0
64,6,1,1,0,1,4.44,0
64,7,1,1,1,0,3.3,0
64,8,1,0,0,1,2.79,0
64,9,1,1,1,1,2.07,1
64,10,1,1,1,1,2.33,1
64,11,1,1,1,1,4.4,1
64,12,1,1,1,0,2.66,0
64,13,1,0,0,0,4.24,1
64,14,1,1,0,0,3.19,1
64,15,1,1,0,0,3.06,1
64,16,1,0,1,1,2.23,1
64,17,1,1,1,0,1.92,0
64,18,1,1,0,1,3.01,0
64,19,1,0,0,1,3.01,0
64,20,1,0,0,0,4.59,1
64,21,1,0,1,1,2.9,1
64,22,1,0,0,1,3.87,0
64,23,1,1,0,1,4.38,0
64,24,1,0,1,1,2.12,1
64,25,1,1,1,1,3.45,1
64,26,1,1,0,0,4.5,1
64,27,1,1,1,0,2.22,0
64,29,1,0,1,0,4.2,0
64,30,1,1,1,1,2.3,1
64,31,1,1,0,1,2.85,0
64,32,1,1,1,1,3.35,1
64,33,1,1,0,1,4,0
64,34,1,1,1,1,3.55,1
64,35,1,0,1,1,4.56,1
64,36,1,0,0,0,4.67,1
64,37,1,0,1,1,3.29,1
64,38,1,0,1,0,2.4,0
64,39,1,1,1,1,2.1,1
64,40,1,0,0,1,3.84,0
64,41,1,1,0,0,4.26,1
64,42,1,0,0,1,4.15,0
64,43,1,0,1,0,4.02,0
64,44,1,0,1,1,3.3,1
64,45,1,1,1,1,3.75,1
64,46,1,0,0,0,3.63,1
64,47,1,1,0,1,2.37,0
64,48,1,0,1,1,2.7,1
64,49,1,1,1,1,4.31,1
64,50,1,1,0,1,3.48,0
64,51,1,0,1,1,2.94,1
64,52,1,0,0,0,3.78,1
64,53,1,0,0,0,2.75,1
64,54,1,1,1,1,4.36,1
64,55,1,0,1,1,2.9,1
64,56,1,0,1,0,4.38,0
64,57,1,0,1,1,3.4,1
64,58,1,0,0,1,2.43,0
64,59,1,0,0,0,4.75,1
65,1,1,0,1,0,2.92,0
65,2,1,1,1,1,2.91,1
65,3,1,1,1,1,2.37,1
65,4,1,1,1,1,4.05,1
65,5,1,0,1,1,3.87,1
65,6,1,1,0,1,2.6,0
65,7,1,1,1,1,1.87,1
65,8,1,1,0,1,2.58,0
65,9,1,1,1,0,4.15,0
65,10,1,0,0,0,2.87,1
65,11,1,0,1,1,3.22,1
65,12,1,0,0,1,2.88,0
65,13,1,1,1,1,2.27,1
65,14,1,1,1,1,3.72,1
65,15,1,1,0,0,4.55,1
65,16,1,1,0,0,2.89,1
65,17,1,1,1,0,3.15,0
65,18,1,0,0,1,3.64,0
65,19,1,0,1,0,4.14,0
65,20,1,1,1,1,3.23,1
65,21,1,0,1,1,4.2,1
65,22,1,1,1,0,2.68,0
65,23,1,0,0,0,3,1
65,24,1,0,0,1,4.11,0
65,26,1,0,1,1,4.48,1
65,27,1,0,0,0,4.01,1
65,28,1,1,0,1,3.23,0
65,29,1,0,0,1,3.63,0
65,30,1,1,0,0,2.48,1
65,31,1,0,0,1,3.19,0
65,32,1,1,1,0,2.8,0
65,33,1,0,1,1,3.4,1
65,34,1,1,0,1,2.42,0
65,35,1,0,0,1,3.07,0
65,36,1,0,1,1,2.36,1
65,37,1,1,1,1,3.29,1
65,39,1,0,0,1,3.2,0
65,40,1,1,0,1,3.46,0
65,41,1,1,0,0,2.64,1
65,42,1,0,0,1,3.53,0
65,43,1,1,1,0,2.94,0
65,44,1,0,1,0,3.18,0
65,45,1,0,1,0,2.85,0
65,46,1,0,0,1,2.91,0
65,47,1,0,1,0,2.81,0
65,48,1,1,0,0,2.52,1
65,49,1,1,0,1,2.59,0
65,50,1,1,0,0,3.91,1
65,51,1,0,1,1,2.48,1
65,52,1,1,1,0,2.74,0
65,53,1,0,0,0,4.17,1
65,54,1,1,0,1,3.2,0
65,55,1,0,1,0,2.55,0
65,56,1,1,0,1,2.39,0
65,57,1,0,1,0,3.6,0
65,58,1,0,1,0,2.45,0
65,59,1,1,1,1,3.33,1
65,60,1,1,0,1,3.57,0
66,1,1,0,1,1,2.91,1
66,2,1,1,1,1,4.39,1
66,3,1,1,0,1,5.4,0
66,4,1,0,1,1,5.49,1
66,5,1,0,1,0,2.99,0
66,6,1,1,1,1,3.68,1
66,7,1,0,0,0,6.7,1
66,8,1,1,1,1,4.82,1
66,9,1,1,0,1,4.68,0
66,10,1,0,0,1,5,0
66,11,1,0,1,1,4.97,1
66,12,1,0,0,1,5.87,0
66,13,1,0,1,1,5.08,1
66,14,1,0,1,1,4.36,1
66,15,1,1,1,1,3.83,1
66,16,1,0,0,0,5.29,1
66,17,1,1,1,0,3.68,0
66,18,1,1,0,1,6.4,0
66,19,1,0,1,1,4.95,1
66,20,1,1,0,1,3.3,0
66,21,1,1,1,1,7.44,1
66,22,1,0,0,1,4.15,0
66,23,1,1,1,1,4.64,1
66,24,1,1,0,1,4.87,0
66,25,1,1,1,1,4.86,1
66,26,1,1,1,0,6.29,0
66,27,1,1,1,1,3.07,1
66,28,1,0,0,0,4.93,1
66,29,1,1,1,1,3.41,1
66,30,1,1,0,0,6.39,1
66,31,1,0,0,1,4.43,0
66,32,1,0,0,0,5.57,1
66,33,1,1,1,1,2.77,1
66,34,1,0,0,1,4.41,0
66,35,1,0,1,0,6.47,0
66,36,1,0,1,1,5.69,1
66,37,1,0,0,0,5.22,1
66,39,1,0,0,1,5.19,0
66,41,1,0,1,0,5.04,0
66,42,1,1,0,0,4.53,1
66,43,1,0,0,1,5.25,0
66,44,1,1,0,1,4.02,0
66,45,1,1,0,0,6.51,1
66,46,1,1,0,1,2.75,0
66,47,1,1,0,1,4.75,0
66,48,1,1,1,1,4.94,1
66,49,1,0,1,1,4.04,1
66,50,1,0,0,0,5.02,1
66,51,1,1,0,1,2.91,0
66,52,1,1,0,1,3.82,0
66,53,1,1,1,0,3.91,0
66,54,1,1,0,0,7.16,1
66,55,1,0,1,1,6.74,1
66,56,1,0,0,0,5.21,1
66,57,1,0,1,1,4.47,1
66,58,1,0,0,1,3.72,0
66,59,1,0,1,0,3.55,0
66,60,1,1,0,1,4.68,0
67,1,1,0,1,1,7.08,1
67,2,1,0,1,1,4.12,1
67,3,1,1,0,0,5.67,1
67,4,1,0,1,1,4.23,1
67,5,1,0,0,0,4.88,1
67,6,1,1,1,1,4.44,1
67,7,1,1,0,1,3.96,0
67,8,1,0,1,1,2.87,1
67,9,1,0,1,1,2.44,1
67,10,1,1,1,0,4.39,0
67,11,1,1,0,1,4.61,0
67,12,1,0,1,1,6.87,1
67,13,1,0,1,0,5.74,0
67,14,1,1,0,1,4.29,0
67,15,1,1,0,0,3.9,1
67,16,1,0,0,1,3.84,0
67,17,1,1,0,0,5.37,1
67,18,1,1,1,1,3.42,1
67,20,1,1,1,0,4.02,0
67,21,1,0,1,1,4.77,1
67,22,1,1,1,0,3.3,0
67,23,1,1,0,0,2.45,1
67,24,1,1,1,1,4.48,1
67,25,1,0,0,1,5.32,0
67,26,1,1,0,1,3.89,0
67,27,1,0,0,1,6.17,0
67,28,1,0,1,0,4.42,0
67,29,1,1,1,0,5.53,0
67,30,1,1,1,0,6.04,0
67,31,1,0,0,0,3.63,1
67,32,1,1,0,0,3.83,1
67,33,1,0,0,1,4.79,0
67,34,1,0,0,0,4.98,1
67,35,1,1,0,1,3.86,0
67,36,1,1,1,0,3.55,0
67,37,1,0,0,0,3.89,1
67,38,1,1,1,1,2.68,1
67,39,1,0,0,0,2.64,1
67,40,1,0,0,0,4.47,1
67,41,1,1,1,1,2.99,1
67,42,1,0,0,0,2.22,1
67,43,1,0,1,0,4.96,0
67,44,1,1,1,1,4.2,1
67,45,1,1,0,1,4.41,0
67,46,1,0,0,0,5.39,1
67,47,1,1,1,0,5.37,0
67,48,1,0,1,1,3.55,1
67,49,1,1,0,0,4.4,1
67,50,1,1,1,0,2.9,0
67,51,1,0,0,0,4.48,1
67,52,1,0,0,1,4.34,0
67,53,1,0,1,0,2.4,0
67,54,1,0,1,0,3.2,0
67,55,1,1,0,0,3.9,1
67,56,1,0,1,1,4.31,1
67,57,1,1,1,0,5.5,0
67,58,1,1,0,1,3,0
67,59,1,1,0,1,2.07,0
67,60,1,0,0,0,4.53,1
68,1,1,1,0,1,2.77,0
68,2,1,1,0,1,3.66,0
68,3,1,0,0,0,3.65,1
68,4,1,0,1,1,3.18,1
68,5,1,1,0,0,4.1,1
68,6,1,0,1,0,3.4,0
68,7,1,1,0,1,3.22,0
68,8,1,0,1,0,5.14,0
68,9,1,0,0,1,2.57,0
68,10,1,0,0,0,3.03,1
68,11,1,1,0,0,4.66,1
68,12,1,0,0,0,2.77,1
68,13,1,1,0,1,3.03,0
68,14,1,1,1,0,2.77,0
68,15,1,1,1,1,3.07,1
68,16,1,0,0,1,2.7,0
68,17,1,1,1,1,2.27,1
68,18,1,1,0,1,2.53,0
68,20,1,1,1,1,3.79,1
68,21,1,0,1,0,2.46,0
68,22,1,0,1,0,2.15,0
68,23,1,0,1,0,3.67,0
68,24,1,1,1,0,2.47,0
68,25,1,0,0,0,7.62,1
68,26,1,0,0,1,3.22,0
68,27,1,1,0,1,2.34,0
68,28,1,0,0,0,3.71,1
68,29,1,0,1,0,3.13,0
68,30,1,1,1,1,3.18,1
68,31,1,0,1,0,5.02,0
68,32,1,0,0,0,2.43,1
68,33,1,0,1,0,5.47,0
68,34,1,0,0,1,3.88,0
68,35,1,1,0,1,2.34,0
68,36,1,1,0,1,2.23,0
68,37,1,1,1,1,3.05,1
68,38,1,1,1,1,2.17,1
68,39,1,1,1,1,1.93,1
68,40,1,1,0,1,2.22,0
68,41,1,1,0,1,2.49,0
68,42,1,0,0,0,2.74,1
68,43,1,1,1,0,4.32,0
68,44,1,0,0,0,3.05,1
68,45,1,1,0,1,2.18,0
68,46,1,1,1,1,3.44,1
68,47,1,1,1,1,4.52,1
68,48,1,1,1,1,2.34,1
68,49,1,0,1,0,3.08,0
68,50,1,0,1,0,3.28,0
68,51,1,0,1,0,2.44,0
68,52,1,0,1,0,1.94,0
68,53,1,0,1,0,1.97,0
68,54,1,0,1,0,3.81,0
68,55,1,1,1,0,3.34,0
68,56,1,0,0,0,2.18,1
68,57,1,0,0,0,2.47,1
68,58,1,0,0,1,4.37,0
68,59,1,1,0,1,2.54,0
68,60,1,1,1,0,3.25,0
69,1,1,1,0,1,2.88,0
69,2,1,0,0,0,5.95,1
69,3,1,0,1,0,5.27,0
69,4,1,0,1,1,4.43,1
69,5,1,0,0,1,4.14,0
69,6,1,1,0,1,3.48,0
69,7,1,0,1,1,4.99,1
69,8,1,0,1,0,3.95,0
69,9,1,1,1,0,6.76,0
69,10,1,0,0,1,5.4,0
69,11,1,1,0,1,2.88,0
69,12,1,1,1,0,5.07,0
69,13,1,1,0,1,2.85,0
69,14,1,0,0,1,6.24,0
69,15,1,0,1,1,4.95,1
69,16,1,0,1,0,4.71,0
69,17,1,1,0,1,4.75,0
69,18,1,0,0,1,3.88,0
69,19,1,1,0,1,2.45,0
69,20,1,0,1,0,4.77,0
69,21,1,1,1,1,3.29,1
69,22,1,1,0,1,3.03,0
69,23,1,1,1,1,2.99,1
69,24,1,0,1,0,5.75,0
69,25,1,0,0,1,4.3,0
69,26,1,1,0,1,6.39,0
69,27,1,1,0,1,3.09,0
69,28,1,0,1,0,5.37,0
69,29,1,1,1,1,3.9,1
69,30,1,0,0,0,6.38,1
69,31,1,1,1,1,3.41,1
69,32,1,1,1,1,2.51,1
69,33,1,1,0,1,5.39,0
69,34,1,0,0,0,5.67,1
69,35,1,1,1,1,8.92,1
69,36,1,0,1,1,4.33,1
69,37,1,1,0,1,4.08,0
69,38,1,1,0,1,4.09,0
69,39,1,1,1,0,4.35,0
69,40,1,1,1,0,5.05,0
69,41,1,0,1,0,5.21,0
69,42,1,1,1,0,4.54,0
69,43,1,0,0,1,3.57,0
69,44,1,0,1,1,6.83,1
69,45,1,0,0,1,3.26,0
69,46,1,1,0,0,3.5,1
69,47,1,1,1,1,3.46,1
69,48,1,0,1,1,5.46,1
69,49,1,0,1,1,4.75,1
69,50,1,1,1,1,3.27,1
69,51,1,1,0,1,4.07,0
69,52,1,0,0,0,4.27,1
69,53,1,0,0,0,4.36,1
69,54,1,1,1,1,2.94,1
69,55,1,0,0,0,6.27,1
69,56,1,1,0,1,5.95,0
69,57,1,0,0,1,6.98,0
69,58,1,0,0,0,5.99,1
69,59,1,1,1,1,2.2,1
69,60,1,0,1,1,2.64,1
70,1,1,1,0,1,6.98,0
70,2,1,1,0,1,2.54,0
70,3,1,0,0,1,4.37,0
70,4,1,1,0,1,2.41,0
70,5,1,0,1,1,4.96,1
70,6,1,0,0,1,7.1,0
70,7,1,1,1,0,3.65,0
70,8,1,1,1,1,5.9,1
70,9,1,1,1,1,4.55,1
70,10,1,0,1,1,5.41,1
70,11,1,1,0,1,7.25,0
70,12,1,1,0,1,5.55,0
70,13,1,1,0,1,4.78,0
70,14,1,0,0,0,5.97,1
70,15,1,0,1,1,3.8,1
70,16,1,0,0,1,5.6,0
70,18,1,1,0,1,4.07,0
70,19,1,1,0,1,4.51,0
70,21,1,0,1,1,5.04,1
70,22,1,1,1,1,2.86,1
70,23,1,1,1,1,2.84,1
70,24,1,1,0,1,4.7,0
70,25,1,1,1,1,3.52,1
70,26,1,1,1,1,2.24,1
70,27,1,0,1,0,4.25,0
70,28,1,0,0,0,3.5,1
70,29,1,0,0,1,5.68,0
70,30,1,1,0,1,3.23,0
70,31,1,0,0,1,4.62,0
70,32,1,1,1,0,4.84,0
70,33,1,0,1,0,2.82,0
70,34,1,0,1,0,6.79,0
70,35,1,1,0,1,3.53,0
70,36,1,0,0,0,5.97,1
70,37,1,1,0,1,1.99,0
70,38,1,1,1,1,2.33,1
70,39,1,0,0,0,4.14,1
70,41,1,0,1,0,7.26,0
70,42,1,0,1,0,4.95,0
70,43,1,0,0,1,4.05,0
70,45,1,0,0,1,6.58,0
70,46,1,1,1,1,2.13,1
70,47,1,0,1,0,3.11,0
70,48,1,0,0,0,4.53,1
70,50,1,1,1,1,5.83,1
70,51,1,0,0,1,3.98,0
70,52,1,1,0,1,2.05,0
70,53,1,0,1,1,4.1,1
70,54,1,1,0,0,4.8,1
70,56,1,0,1,1,8.6,1
70,57,1,0,0,1,6.71,0
70,58,1,1,1,1,1.73,1
70,59,1,1,1,1,3.62,1
70,60,1,1,0,1,3.97,0
71,1,1,0,1,1,2.65,1
71,2,1,0,1,0,4.13,0
71,3,1,1,1,1,2.85,1
71,4,1,1,1,1,3.25,1
71,5,1,0,0,0,3.04,1
71,6,1,0,1,1,2.35,1
71,7,1,0,0,1,3.05,0
71,8,1,0,1,0,3.29,0
71,9,1,1,1,1,5.04,1
71,10,1,1,1,1,2.69,1
71,11,1,1,1,0,2.7,0
71,12,1,0,0,1,3.38,0
71,13,1,1,0,1,2.32,0
71,14,1,0,1,0,2.54,0
71,15,1,1,1,0,3.17,0
71,16,1,0,1,1,2.02,1
71,17,1,1,0,1,2.14,0
71,18,1,0,0,0,3.05,1
71,19,1,1,0,0,2.59,1
71,20,1,0,1,1,3.28,1
71,21,1,0,0,1,2.12,0
71,22,1,1,0,1,2.74,0
71,23,1,1,0,1,2.13,0
71,24,1,0,0,0,2.6,1
71,25,1,0,1,1,3.6,1
71,26,1,1,1,0,2.51,0
71,27,1,1,1,1,4.45,1
71,28,1,1,0,1,2.17,0
71,29,1,0,1,1,3.9,1
71,30,1,0,0,1,5.71,0
71,31,1,0,0,0,3.33,1
71,32,1,0,0,1,1.98,0
71,33,1,1,0,1,5.34,0
71,34,1,1,1,1,2.55,1
71,35,1,0,0,1,2.1,0
71,36,1,1,1,1,4.93,1
71,37,1,1,1,0,3.2,0
71,38,1,0,1,0,2.78,0
71,39,1,1,0,1,3.36,0
71,40,1,0,0,0,4.3,1
71,41,1,0,1,1,2.95,1
71,42,1,0,0,1,2.96,0
71,43,1,1,0,1,2.75,0
71,44,1,0,1,1,3.01,1
71,45,1,1,0,0,4.13,1
71,46,1,1,0,0,4.7,1
71,47,1,0,0,1,4.01,0
71,48,1,1,0,1,4.53,0
71,50,1,1,1,1,3.93,1
71,51,1,1,0,1,1.76,0
71,52,1,0,1,0,3.44,0
71,54,1,0,0,1,2.16,0
71,55,1,1,1,0,2.58,0
71,56,1,1,0,1,2.41,0
71,57,1,1,1,1,2.41,1
71,58,1,1,0,1,2.47,0
71,59,1,0,0,1,2.5,0
71,60,1,0,1,1,3.74,1
72,1,1,1,1,1,6.5,1
72,2,1,0,0,0,5.48,1
72,3,1,1,1,1,3.26,1
72,4,1,1,1,1,3.98,1
72,5,1,0,0,0,4.57,1
72,6,1,1,1,1,3.15,1
72,7,1,1,0,1,2.71,0
72,8,1,1,1,0,6.27,0
72,9,1,0,1,0,3.18,0
72,10,1,0,0,0,4.88,1
72,11,1,1,1,1,4.2,1
72,12,1,1,1,1,2.01,1
72,13,1,1,0,1,3.38,0
72,14,1,0,1,0,3.33,0
72,15,1,0,1,0,5.08,0
72,16,1,0,1,1,4.27,1
72,17,1,0,0,0,4.12,1
72,18,1,1,1,1,6.52,1
72,19,1,0,0,1,4.34,0
72,20,1,0,0,0,7.02,1
72,21,1,0,0,0,6.7,1
72,22,1,1,1,1,5.37,1
72,23,1,0,1,1,5.57,1
72,24,1,1,0,1,2.65,0
72,25,1,1,0,1,5.15,0
72,26,1,0,1,1,4.04,1
72,27,1,1,0,0,4.17,1
72,28,1,0,0,1,3.58,0
72,29,1,1,0,1,2.72,0
72,30,1,1,0,1,4.87,0
72,31,1,0,1,0,3.71,0
72,32,1,1,0,1,3.93,0
72,33,1,1,0,1,2.51,0
72,34,1,0,0,1,4.22,0
72,36,1,0,0,0,5.55,1
72,37,1,0,0,1,3.65,0
72,38,1,0,0,0,3.98,1
72,39,1,1,1,1,3.4,1
72,40,1,1,0,1,4.08,0
72,41,1,0,0,1,2.95,0
72,42,1,0,1,0,6.59,0
72,43,1,1,0,1,3.4,0
72,44,1,1,1,1,5.77,1
72,45,1,0,1,0,5.5,0
72,46,1,0,1,1,5.46,1
72,47,1,1,1,0,5.02,0
72,48,1,1,0,1,2.66,0
72,49,1,1,1,1,2.2,1
72,50,1,0,0,1,4.09,0
72,51,1,1,1,1,3.7,1
72,52,1,1,0,1,2.67,0
72,53,1,1,0,0,5.14,1
72,54,1,0,1,0,6.43,0
72,55,1,0,1,1,4.05,1
72,56,1,0,0,0,5.27,1
72,57,1,0,1,0,5.07,0
72,58,1,0,1,0,6.11,0
72,59,1,1,0,1,5.87,0
73,1,1,0,0,0,6.12,1
73,2,1,1,1,1,4.05,1
73,3,1,0,0,0,3.28,1
73,4,1,0,0,1,4.36,0
73,5,1,1,0,0,2.17,1
73,6,1,0,1,0,3.33,0
73,7,1,1,0,1,3.95,0
73,8,1,1,0,1,4.14,0
73,9,1,0,0,0,2.85,1
73,10,1,1,1,0,1.96,0
73,11,1,0,0,1,2.67,0
73,12,1,1,0,1,3.82,0
73,13,1,1,0,1,2.15,0
73,14,1,0,1,1,2.51,1
73,15,1,1,1,0,2.76,0
73,16,1,0,1,1,4.68,1
73,17,1,1,0,1,2.1,0
73,18,1,1,1,1,2.2,1
73,19,1,1,0,1,2,0
73,20,1,1,0,1,1.92,0
73,21,1,1,1,1,1.72,1
73,22,1,0,1,1,2.22,1
73,23,1,1,0,1,2.17,0
73,24,1,1,1,1,3.3,1
73,25,1,0,0,1,3.48,0
73,26,1,0,1,0,2.35,0
73,27,1,0,1,1,4.4,1
73,28,1,1,1,0,3.13,0
73,29,1,0,1,1,3.65,1
73,30,1,0,1,1,4.88,1
73,31,1,1,0,1,2.6,0
73,32,1,1,0,0,4.05,1
73,33,1,0,0,1,2.56,0
73,34,1,1,0,1,2.67,0
73,35,1,0,0,0,4.47,1
73,36,1,0,1,1,3.19,1
73,37,1,0,0,1,2.69,0
73,38,1,0,1,1,3.51,1
73,39,1,0,1,0,2.93,0
73,40,1,1,1,1,2.5,1
73,41,1,0,1,1,4.5,1
73,42,1,0,0,1,3.87,0
73,43,1,1,0,1,3.46,0
73,44,1,0,0,1,3.63,0
73,45,1,1,1,0,2.63,0
73,46,1,0,0,0,4.63,1
73,48,1,0,0,0,5.45,1
73,49,1,1,1,1,4.85,1
73,50,1,0,0,1,4.55,0
73,52,1,1,1,1,2.48,1
73,53,1,1,0,0,3.7,1
73,54,1,1,1,1,5.06,1
73,55,1,0,1,0,3.42,0
73,56,1,1,1,0,4.82,0
73,57,1,0,1,0,3.6,0
73,58,1,1,0,1,2.78,0
73,59,1,0,0,1,5.29,0
73,60,1,1,1,0,3.83,0
74,1,1,1,0,1,4.31,0
74,2,1,1,1,1,3.14,1
74,3,1,1,0,1,3.35,0
74,4,1,1,0,0,4.35,1
74,5,1,1,0,0,3.89,1
74,6,1,0,1,0,3.9,0
74,7,1,0,1,0,3.07,0
74,8,1,1,0,0,4.49,1
74,9,1,1,1,1,2.47,1
74,10,1,1,0,1,1.98,0
74,11,1,0,0,1,3.09,0
74,12,1,1,1,1,2.08,1
74,13,1,0,1,0,3.3,0
74,14,1,0,0,1,1.89,0
74,15,1,0,0,1,3.21,0
74,16,1,1,1,1,3.56,1
74,17,1,0,0,1,4.17,0
74,18,1,1,1,1,2.47,1
74,19,1,1,1,1,2.42,1
74,20,1,0,0,1,3,0
74,21,1,1,1,1,3.5,1
74,22,1,1,1,1,3.44,1
74,23,1,0,0,0,3.61,1
74,25,1,1,1,1,2.18,1
74,26,1,0,0,1,2.96,0
74,27,1,1,0,1,3.16,0
74,28,1,0,1,1,2.35,1
74,29,1,0,0,1,3.11,0
74,30,1,1,1,1,3.01,1
74,31,1,0,0,1,5.99,0
74,32,1,0,1,1,2.43,1
74,33,1,0,0,1,4.29,0
74,34,1,1,0,1,2.42,0
74,35,1,1,0,1,3.1,0
74,36,1,1,0,1,2.75,0
74,37,1,1,1,1,2.48,1
74,38,1,0,1,1,2.03,1
74,39,1,0,1,1,3.63,1
74,40,1,1,0,1,2.38,0
74,41,1,0,1,1,3.4,1
74,42,1,0,0,0,5.67,1
74,43,1,0,1,1,2.73,1
74,44,1,0,0,1,5.6,0
74,45,1,0,1,1,3.22,1
74,46,1,1,0,1,2.75,0
74,47,1,0,0,1,3.53,0
74,48,1,1,0,1,3.1,0
74,49,1,0,0,1,3.76,0
74,51,1,1,1,1,2.62,1
74,52,1,1,0,1,3.19,0
74,53,1,1,1,1,5.32,1
74,54,1,0,1,1,3.04,1
74,55,1,0,0,0,4.08,1
74,56,1,0,1,1,3.82,1
74,57,1,0,1,1,1.8,1
74,58,1,1,1,0,3.87,0
74,59,1,0,1,0,3.34,0
74,60,1,1,0,0,4.69,1
75,1,1,0,0,1,2.97,0
75,2,1,1,0,1,3.25,0
75,3,1,0,1,1,3.11,1
75,4,1,0,1,1,2.52,1
75,5,1,1,1,0,2.87,0
75,6,1,1,1,0,3.71,0
75,7,1,1,0,1,2.16,0
75,8,1,0,0,0,2.45,1
75,9,1,1,0,1,3.47,0
75,10,1,1,1,0,2.8,0
75,11,1,0,0,0,2.74,1
75,12,1,1,0,1,3.3,0
75,13,1,1,1,1,3.03,1
75,14,1,0,1,1,3.26,1
75,15,1,1,0,1,2.89,0
75,16,1,0,1,1,2.52,1
75,17,1,0,0,0,2.43,1
75,18,1,1,1,1,2.49,1
75,19,1,1,1,1,2.83,1
75,20,1,1,1,1,2.35,1
75,21,1,0,1,0,2.61,0
75,22,1,1,0,0,2.48,1
75,23,1,0,0,1,2.43,0
75,24,1,0,0,0,2.44,1
75,25,1,1,0,1,3.02,0
75,26,1,0,1,1,3.2,1
75,27,1,0,1,0,2.56,0
75,28,1,0,0,1,3.27,0
75,29,1,0,1,0,3.32,0
75,30,1,1,0,1,3.02,0
75,31,1,0,1,0,2.36,0
75,32,1,1,0,0,2.72,1
75,33,1,1,1,1,3.01,1
75,34,1,1,1,1,3,1
75,35,1,0,0,0,2.53,1
75,36,1,1,0,1,3.09,0
75,37,1,1,1,1,2.67,1
75,38,1,1,1,1,2.16,1
75,39,1,1,1,1,3.4,1
75,40,1,0,0,0,2.35,1
75,41,1,1,1,1,2.99,1
75,42,1,0,0,0,2.43,1
75,43,1,0,0,0,2.84,1
75,44,1,0,0,0,1.85,1
75,45,1,0,1,0,2.17,0
75,46,1,0,1,0,3.38,0
75,47,1,1,0,1,3.14,0
75,48,1,0,1,1,2.63,1
75,49,1,1,0,1,2.91,0
75,50,1,1,1,1,2.35,1
75,51,1,0,1,0,3.12,0
75,52,1,0,1,0,3.25,0
75,53,1,0,0,0,2.36,1
75,54,1,0,0,0,2.42,1
75,55,1,1,1,1,3.05,1
75,56,1,0,0,1,2.9,0
75,57,1,0,1,0,2.92,0
75,58,1,1,0,1,2.82,0
75,59,1,1,0,0,2.66,1
