id,trial,session,stim_type,correct_resp,resp,rt,correct
1,1,2,0,1,0,5.9,0
1,2,2,1,0,1,3.1,0
1,4,2,0,1,1,3.51,1
1,5,2,1,0,1,2.73,0
1,6,2,1,1,1,3.41,1
1,7,2,1,0,0,6.25,1
1,8,2,0,1,1,2.79,1
1,9,2,0,0,1,5.4,0
1,11,2,1,0,0,4.55,1
1,12,2,0,1,0,4.73,0
1,13,2,0,0,1,4.82,0
1,15,2,0,0,1,7,0
1,16,2,0,1,1,5.46,1
1,17,2,1,0,1,2.98,0
1,18,2,0,1,1,6.97,1
1,19,2,1,1,1,3.05,1
1,20,2,0,1,0,3.88,0
1,21,2,1,1,0,3.87,0
1,22,2,0,0,0,8.25,1
1,23,2,0,1,1,6.38,1
1,24,2,1,0,1,2.83,0
1,25,2,1,1,0,5.44,0
1,26,2,0,0,1,6.64,0
1,27,2,1,0,1,2.73,0
1,28,2,0,0,0,3.33,1
1,29,2,0,1,1,4.73,1
1,30,2,1,1,1,4.72,1
1,31,2,1,1,0,6.15,0
1,32,2,1,0,0,5.6,1
1,34,2,0,0,1,4.29,0
1,35,2,0,0,0,5.72,1
1,36,2,1,0,1,4.64,0
1,37,2,1,0,0,4.75,1
1,38,2,1,0,1,6.36,0
1,40,2,1,1,1,4.4,1
1,41,2,0,1,1,3.09,1
1,42,2,1,1,1,4.65,1
1,43,2,1,1,1,3.37,1
1,44,2,1,0,0,4.37,1
1,45,2,0,0,0,8.12,1
1,46,2,1,0,1,2.86,0
1,47,2,0,0,1,7.27,0
1,48,2,0,1,1,5.54,1
1,49,2,0,0,1,5.99,0
1,50,2,0,1,0,3.87,0
1,51,2,1,1,0,3.12,0
1,52,2,1,1,0,3.08,0
1,53,2,0,1,0,5.24,0
1,54,2,0,0,1,3.67,0
1,55,2,1,0,0,2.65,1
1,56,2,0,0,0,4.44,1
1,57,2,0,0,1,4.54,0
1,58,2,0,1,1,6.03,1
1,59,2,0,1,1,4.27,1
1,60,2,1,1,1,7.19,1
2,1,2,0,1,1,2.62,1
2,2,2,0,1,1,3.24,1
2,3,2,1,1,0,2.45,0
2,4,2,0,1,0,3.18,0
2,5,2,1,1,1,1.85,1
2,6,2,1,0,1,2.08,0
2,7,2,1,1,1,4.55,1
2,8,2,0,1,1,2.15,1
2,9,2,0,1,0,5.73,0
2,10,2,1,1,1,2.24,1
2,11,2,1,0,0,3.45,1
2,12,2,0,0,1,2.38,0
2,13,2,1,0,0,4.5,1
2,14,2,0,1,0,2.45,0
2,15,2,1,0,1,2.3,0
2,16,2,0,0,1,2.86,0
2,17,2,1,1,1,1.79,1
2,18,2,1,1,1,3.56,1
2,19,2,1,1,1,2.45,1
2,20,2,1,0,1,2.03,0
2,21,2,1,0,1,2.63,0
2,22,2,0,0,1,2.59,0
2,23,2,1,1,0,3.7,0
2,24,2,1,0,1,4.02,0
2,25,2,0,0,0,2.44,1
2,26,2,1,1,1,2.53,1
2,27,2,1,1,1,2.94,1
2,28,2,0,1,1,2.43,1
2,29,2,0,1,0,3.71,0
2,30,2,0,1,1,3.51,1
2,31,2,1,1,1,1.64,1
2,32,2,1,0,1,2.62,0
2,33,2,0,0,0,2.6,1
2,34,2,0,1,0,3.42,0
2,35,2,0,1,0,2.45,0
2,36,2,1,0,1,1.44,0
2,37,2,1,0,1,1.8,0
2,38,2,0,0,0,2.73,1
2,39,2,0,0,1,2.84,0
2,40,2,1,1,0,2.12,0
2,41,2,0,0,1,2.48,0
2,42,2,0,1,1,3.02,1
2,43,2,0,0,0,2.27,1
2,44,2,1,0,1,1.41,0
2,45,2,1,0,1,2.57,0
2,46,2,1,1,1,1.98,1
2,47,2,0,0,1,1.64,0
2,48,2,0,1,0,4.29,0
2,49,2,0,0,0,3.08,1
2,50,2,0,0,1,2.5,0
2,51,2,1,0,1,1.87,0
2,52,2,1,1,1,2.07,1
2,53,2,0,0,0,3.38,1
2,54,2,1,0,1,1.95,0
2,55,2,1,0,0,2.3,1
2,57,2,1,1,1,2.64,1
2,58,2,0,1,0,3.2,0
2,59,2,0,0,1,2.87,0
2,60,2,0,1,0,4.42,0
3,1,2,0,0,0,3.2,1
3,2,2,1,1,0,2.66,0
3,3,2,1,0,0,3.51,1
3,4,2,0,1,1,4.85,1
3,5,2,0,0,1,3.65,0
3,6,2,1,1,0,3.33,0
3,7,2,0,1,0,6.92,0
3,8,2,0,1,0,3.5,0
3,9,2,0,1,1,2.36,1
3,10,2,0,0,0,2.94,1
3,11,2,0,1,1,2.36,1
3,12,2,1,1,1,3.31,1
3,13,2,1,0,1,1.99,0
3,14,2,1,1,0,3.22,0
3,15,2,1,1,1,5.6,1
3,16,2,1,0,1,3.59,0
3,17,2,0,1,0,3.7,0
3,18,2,1,1,1,2.08,1
3,19,2,1,1,0,5.35,0
3,20,2,1,0,1,2.64,0
3,21,2,0,0,1,3.63,0
3,22,2,0,1,0,4.27,0
3,23,2,1,1,1,2.78,1
3,24,2,1,1,0,4.13,0
3,25,2,1,1,1,6.8,1
3,26,2,1,1,1,2.43,1
3,27,2,0,1,0,3.62,0
3,28,2,1,1,1,3.02,1
3,29,2,0,0,1,2.82,0
3,31,2,0,0,1,4.4,0
3,32,2,1,0,1,1.98,0
3,33,2,1,0,0,2.98,1
3,34,2,1,0,1,4.38,0
3,35,2,1,0,1,3.5,0
3,36,2,0,1,1,3.57,1
3,37,2,1,0,0,2.29,1
3,38,2,1,0,1,2.97,0
3,39,2,1,0,0,4.38,1
3,40,2,1,0,1,2.22,0
3,41,2,0,0,0,6.1,1
3,42,2,0,0,1,2.5,0
3,43,2,1,1,1,2.48,1
3,44,2,1,0,0,2.37,1
3,45,2,0,0,1,4.17,0
3,46,2,1,1,1,2.52,1
3,47,2,0,1,1,3.44,1
3,48,2,0,0,1,2.65,0
3,49,2,1,0,1,1.88,0
3,50,2,0,0,0,6.2,1
3,51,2,0,1,1,4.47,1
3,52,2,0,0,1,2.26,0
3,53,2,0,1,1,2.53,1
3,54,2,0,1,0,4.06,0
3,55,2,1,1,1,5.77,1
3,56,2,0,0,0,2.79,1
3,57,2,0,0,1,7.48,0
3,58,2,1,0,1,2.33,0
3,59,2,0,1,1,2.2,1
3,60,2,0,1,1,3.19,1
4,1,2,1,0,0,5.91,1
4,2,2,1,0,1,4.85,0
4,3,2,0,1,0,4.07,0
4,5,2,1,1,1,3.1,1
4,6,2,1,1,1,3.75,1
4,7,2,1,0,1,2.75,0
4,8,2,0,1,1,3.9,1
4,9,2,1,1,1,2.89,1
4,10,2,1,0,1,4.55,0
4,11,2,1,1,1,5.35,1
4,12,2,1,0,1,4,0
4,13,2,1,1,1,2.6,1
4,14,2,1,0,1,2.4,0
4,15,2,0,0,1,3.69,0
4,16,2,0,0,1,2.51,0
4,17,2,1,0,1,2.71,0
4,18,2,1,0,1,2.38,0
4,19,2,0,0,1,4.4,0
4,20,2,1,0,0,5.25,1
4,21,2,0,0,1,3.46,0
4,22,2,0,0,1,2.83,0
4,23,2,1,0,1,3.65,0
4,24,2,0,1,0,4.1,0
4,25,2,0,0,1,2.96,0
4,26,2,0,1,1,3.68,1
4,27,2,1,1,0,4.2,0
4,28,2,1,1,1,2.48,1
4,29,2,0,0,1,6.63,0
4,30,2,0,0,0,6.09,1
4,31,2,0,1,1,4.6,1
4,32,2,0,1,1,3.18,1
4,33,2,1,1,1,2.44,1
4,34,2,0,0,0,4.07,1
4,35,2,1,1,1,3.77,1
4,36,2,0,0,0,2.48,1
4,37,2,1,0,1,2.63,0
4,38,2,0,1,0,3.59,0
4,39,2,0,0,1,3.42,0
4,40,2,0,0,0,3.13,1
4,41,2,1,0,0,2.27,1
4,42,2,0,1,0,3.99,0
4,43,2,0,1,0,3.9,0
4,44,2,0,1,1,3.2,1
4,45,2,0,1,1,2.47,1
4,46,2,1,1,1,2.79,1
4,47,2,0,0,1,4.9,0
4,48,2,0,1,1,5.34,1
4,49,2,1,1,1,2.23,1
4,50,2,1,1,1,3.14,1
4,51,2,0,0,0,3.2,1
4,52,2,1,0,0,4.85,1
4,53,2,1,0,1,3.15,0
4,54,2,1,0,1,3.28,0
4,55,2,1,1,1,2.91,1
4,56,2,0,1,1,2.43,1
4,57,2,0,1,1,4.02,1
4,58,2,1,1,1,3.2,1
4,59,2,1,1,0,4.16,0
4,60,2,0,0,0,4.77,1
5,1,2,1,1,1,4.33,1
5,2,2,1,0,0,3.02,1
5,3,2,1,1,1,3.47,1
5,4,2,1,0,0,3.55,1
5,5,2,1,0,0,3.97,1
5,6,2,1,1,1,3.42,1
5,7,2,1,0,0,3.33,1
5,8,2,0,0,1,5.78,0
5,9,2,1,1,1,3.11,1
5,10,2,1,0,0,7.15,1
5,11,2,0,1,1,4.87,1
5,12,2,1,1,0,6.15,0
5,13,2,0,1,0,7.02,0
5,14,2,1,0,0,3.67,1
5,15,2,0,0,0,9.25,1
5,16,2,0,1,1,7.23,1
5,17,2,1,1,0,4.73,0
5,19,2,0,0,1,6.12,0
5,20,2,0,1,0,3.88,0
5,21,2,0,1,0,3.45,0
5,22,2,1,1,1,4.46,1
5,23,2,1,1,1,4.12,1
5,24,2,0,0,0,6.66,1
5,25,2,0,1,0,6.22,0
5,26,2,0,0,0,6.23,1
5,29,2,1,1,1,3.58,1
5,30,2,0,1,1,7.26,1
5,31,2,0,0,1,4.76,0
5,32,2,1,0,0,3.45,1
5,33,2,0,1,0,6.68,0
5,34,2,0,1,1,5.23,1
5,35,2,1,0,1,4.29,0
5,36,2,0,1,0,4.91,0
5,37,2,0,0,1,4.99,0
5,38,2,0,1,1,9.26,1
5,39,2,1,0,0,3,1
5,40,2,0,0,0,4.32,1
5,42,2,1,0,0,3.36,1
5,43,2,1,0,0,4.83,1
5,44,2,0,1,0,3.93,0
5,45,2,0,0,0,6.46,1
5,46,2,1,1,1,3.14,1
5,47,2,0,1,0,6.02,0
5,48,2,0,0,1,5.13,0
5,49,2,1,1,1,4.15,1
5,50,2,0,0,1,5.42,0
5,51,2,0,0,0,4.45,1
5,52,2,0,0,1,3.6,0
5,53,2,1,0,0,3.69,1
5,54,2,1,1,0,3.98,0
5,55,2,1,1,0,5.58,0
5,56,2,0,0,0,7.35,1
5,57,2,1,0,1,3.8,0
5,58,2,1,1,0,4.07,0
5,59,2,0,0,1,7.08,0
5,60,2,1,1,1,5.8,1
6,1,2,1,0,1,4.9,0
6,2,2,0,1,0,6.68,0
6,3,2,1,1,0,3.29,0
6,4,2,0,1,0,4.59,0
6,5,2,0,0,1,3.26,0
6,6,2,1,0,0,3.19,1
6,7,2,0,1,1,6.34,1
6,8,2,0,1,0,2.78,0
6,9,2,1,1,0,8.57,0
6,10,2,0,1,1,4.74,1
6,11,2,1,1,0,8.51,0
6,12,2,1,0,0,3.28,1
6,13,2,1,0,0,5.75,1
6,14,2,0,0,1,2.62,0
6,15,2,0,0,1,6.06,0
6,16,2,1,1,0,4.92,0
6,17,2,1,0,0,8.13,1
6,18,2,1,0,0,3.75,1
6,19,2,1,1,1,2.67,1
6,20,2,0,0,0,7.56,1
6,21,2,0,0,1,7.32,0
6,22,2,0,1,1,5.43,1
6,23,2,0,0,1,4.91,0
6,24,2,0,1,0,4.72,0
6,25,2,1,0,1,5.95,0
6,26,2,0,1,0,7.71,0
6,27,2,0,1,1,3.98,1
6,28,2,1,1,0,3.56,0
6,29,2,1,1,0,4.43,0
6,30,2,1,0,1,3.95,0
6,31,2,1,1,1,3.42,1
6,32,2,1,0,1,2.51,0
6,33,2,1,0,1,2.34,0
6,34,2,0,1,0,5.32,0
6,35,2,1,0,1,5.4,0
6,36,2,1,1,1,3.29,1
6,37,2,0,1,1,9.28,1
6,38,2,1,0,0,2.99,1
6,39,2,0,1,1,4.8,1
6,40,2,0,0,0,7.23,1
6,41,2,1,1,1,3.89,1
6,42,2,0,0,1,6.34,0
6,43,2,1,1,0,8.27,0
6,44,2,1,1,1,5.43,1
6,45,2,0,0,0,5.69,1
6,46,2,0,0,1,4.69,0
6,47,2,0,1,1,2.98,1
6,48,2,1,0,1,3.29,0
6,50,2,0,0,1,4.33,0
6,51,2,0,1,0,4.76,0
6,52,2,1,0,1,3.28,0
6,53,2,0,0,0,6.77,1
6,54,2,1,1,0,5.54,0
6,55,2,0,1,1,3.75,1
6,56,2,1,1,1,3.72,1
6,57,2,0,0,1,3.46,0
6,58,2,0,0,0,8.8,1
6,59,2,1,1,1,2.77,1
6,60,2,1,0,0,5.12,1
7,1,2,0,0,1,3.66,0
7,2,2,0,1,0,2.29,0
7,3,2,1,0,1,2.8,0
7,4,2,1,0,0,4.91,1
7,5,2,1,1,0,5.38,0
7,6,2,1,0,1,2.95,0
7,7,2,0,1,1,3.41,1
7,8,2,0,1,1,4.2,1
7,9,2,1,1,0,3.02,0
7,10,2,0,1,1,2.75,1
7,11,2,1,0,0,3.91,1
7,12,2,1,0,0,2.83,1
7,13,2,0,1,0,2.74,0
7,14,2,0,0,1,3.2,0
7,15,2,0,0,1,2.97,0
7,16,2,0,1,1,3.99,1
7,17,2,0,0,0,2.65,1
7,18,2,1,0,1,2.5,0
7,19,2,0,1,1,3.26,1
7,20,2,1,1,0,2.83,0
7,21,2,1,0,1,2.44,0
7,22,2,1,1,0,3.96,0
7,23,2,0,1,1,6.13,1
7,25,2,1,0,1,2.73,0
7,26,2,0,0,1,3.63,0
7,27,2,0,1,1,2.83,1
7,28,2,1,0,1,4.46,0
7,29,2,1,0,1,2.55,0
7,30,2,1,1,1,4.75,1
7,31,2,1,0,0,3.58,1
7,32,2,1,1,1,2.67,1
7,33,2,0,0,0,3.55,1
7,34,2,0,1,0,3.04,0
7,35,2,0,0,0,4.05,1
7,36,2,1,1,0,3.13,0
7,37,2,0,0,0,2.85,1
7,38,2,1,0,1,3.4,0
7,39,2,1,1,1,3.35,1
7,40,2,1,1,1,5.29,1
7,41,2,0,0,0,3.17,1
7,42,2,1,1,0,2.98,0
7,43,2,0,1,1,3.83,1
7,44,2,0,1,1,2.66,1
7,45,2,1,1,0,3.34,0
7,46,2,0,1,0,3.94,0
7,47,2,1,1,1,3.37,1
7,48,2,0,0,1,2.45,0
7,49,2,0,0,0,3.86,1
7,50,2,0,1,0,3,0
7,51,2,0,1,1,3.62,1
7,52,2,0,0,1,3.92,0
7,53,2,0,0,1,3.87,0
7,54,2,1,1,1,2.34,1
7,55,2,1,1,1,3.03,1
7,56,2,1,1,1,2.11,1
7,57,2,1,0,1,3.93,0
7,58,2,1,0,1,1.92,0
7,59,2,0,0,0,3.65,1
7,60,2,1,0,1,3,0
8,1,2,0,1,1,1.77,1
8,2,2,1,0,1,3.03,0
8,3,2,0,1,1,3.4,1
8,4,2,1,0,1,2.47,0
8,5,2,0,0,0,3.7,1
8,6,2,1,0,1,2.13,0
8,7,2,0,1,0,4.31,0
8,8,2,1,1,0,4,0
8,9,2,1,0,0,3.12,1
8,10,2,0,1,0,3.89,0
8,11,2,0,0,1,2.29,0
8,12,2,1,1,1,2.44,1
8,13,2,0,1,1,3.37,1
8,14,2,1,0,0,1.96,1
8,15,2,0,0,1,4.04,0
8,16,2,1,1,1,3.61,1
8,17,2,0,1,1,3.9,1
8,18,2,1,0,1,4.38,0
8,19,2,1,1,1,4.46,1
8,20,2,0,0,1,5.09,0
8,21,2,0,0,0,3.43,1
8,22,2,1,0,0,3.03,1
8,23,2,1,0,1,4.69,0
8,24,2,1,0,1,3.32,0
8,25,2,0,1,0,2.62,0
8,26,2,1,1,1,3.95,1
8,27,2,1,1,1,5.57,1
8,28,2,1,1,0,3.78,0
8,29,2,1,1,1,4.13,1
8,31,2,0,1,0,4.64,0
8,32,2,0,0,1,5.22,0
8,33,2,0,0,0,2.75,1
8,34,2,0,1,0,5.5,0
8,35,2,1,0,1,2.55,0
8,36,2,0,0,1,3.92,0
8,37,2,0,0,0,3.55,1
8,38,2,1,1,0,4.58,0
8,39,2,0,1,1,3.54,1
8,40,2,0,0,0,4.3,1
8,41,2,0,0,1,3.13,0
8,42,2,0,1,1,2.86,1
8,43,2,1,1,1,5.38,1
8,44,2,0,1,1,4.59,1
8,45,2,1,1,1,2.74,1
8,46,2,1,0,0,4.07,1
8,47,2,1,0,1,3.7,0
8,48,2,1,1,1,2.93,1
8,49,2,1,1,0,2,0
8,50,2,0,1,1,3.38,1
8,51,2,0,1,1,3.3,1
8,52,2,1,1,1,3.2,1
8,53,2,1,0,1,2.33,0
8,54,2,1,0,0,5.49,1
8,55,2,1,0,1,3.04,0
8,56,2,0,0,1,2.5,0
8,57,2,0,0,1,3.77,0
8,58,2,0,0,0,2.57,1
8,59,2,0,0,0,2.51,1
8,60,2,1,1,1,4.41,1
9,1,2,1,1,1,3.42,1
9,2,2,1,1,0,3.95,0
9,3,2,1,1,0,4.68,0
9,4,2,1,0,1,2.69,0
9,5,2,0,0,1,4.3,0
9,6,2,0,1,1,4.83,1
9,7,2,1,1,0,3.71,0
9,8,2,1,0,1,3.5,0
9,9,2,1,1,1,4.31,1
9,10,2,0,1,1,3.85,1
9,11,2,1,0,0,3.57,1
9,12,2,0,1,1,2.45,1
9,13,2,0,0,1,2.79,0
9,14,2,1,1,1,1.97,1
9,15,2,1,0,1,3.77,0
9,16,2,1,0,1,6.37,0
9,17,2,0,1,1,4.01,1
9,18,2,1,1,1,2.4,1
9,19,2,1,1,1,2.33,1
9,20,2,1,1,1,4.37,1
9,21,2,1,0,1,2.76,0
9,22,2,0,0,0,2.9,1
9,23,2,0,1,0,4.4,0
9,24,2,0,1,0,3.94,0
9,25,2,0,0,1,4.72,0
9,26,2,1,1,1,2.73,1
9,27,2,1,0,1,3.5,0
9,28,2,0,0,1,3.89,0
9,29,2,0,0,1,4.57,0
9,30,2,1,1,1,3.92,1
9,31,2,1,1,1,4.77,1
9,32,2,1,0,0,3.72,1
9,33,2,0,0,1,2.76,0
9,34,2,1,1,1,2.45,1
9,35,2,0,0,0,3.03,1
9,36,2,1,0,1,2.16,0
9,37,2,0,0,1,3.21,0
9,38,2,0,0,0,4.81,1
9,39,2,1,0,1,2.23,0
9,40,2,1,0,1,3.13,0
9,41,2,1,0,1,3.4,0
9,42,2,0,1,1,3.44,1
9,43,2,1,0,1,2.97,0
9,44,2,0,1,1,3.8,1
9,45,2,1,1,1,5.51,1
9,46,2,0,1,1,2.97,1
9,47,2,0,1,1,5.41,1
9,48,2,0,1,1,2.97,1
9,49,2,0,0,1,2.44,0
9,50,2,0,1,1,2.43,1
9,51,2,1,0,0,3.1,1
9,52,2,1,0,0,2.71,1
9,53,2,0,0,1,3.71,0
9,54,2,0,1,1,2.97,1
9,55,2,0,0,1,2.33,0
9,56,2,0,0,0,3.3,1
9,57,2,0,1,1,2.42,1
9,58,2,0,0,1,4.37,0
9,59,2,0,1,1,2.33,1
9,60,2,1,1,1,4.41,1
10,1,2,1,0,0,4.19,1
10,2,2,1,1,0,3.94,0
10,3,2,0,0,1,3.47,0
10,4,2,0,1,1,3.24,1
10,5,2,1,1,0,3.55,0
10,6,2,0,1,0,4.44,0
10,7,2,1,1,0,4.45,0
10,8,2,1,1,1,4.83,1
10,9,2,1,0,1,3.94,0
10,10,2,0,0,1,4,0
10,11,2,0,0,1,5.69,0
10,12,2,0,1,1,4.38,1
10,13,2,0,0,1,4.3,0
10,14,2,1,0,0,4.79,1
10,15,2,1,1,1,2.8,1
10,16,2,0,0,1,3.58,0
10,17,2,1,1,1,2.89,1
10,18,2,0,1,1,3.96,1
10,19,2,1,0,0,3.22,1
10,20,2,1,0,1,3.34,0
10,21,2,0,0,0,2.45,1
10,22,2,1,0,1,3.4,0
10,23,2,1,1,1,3.64,1
10,24,2,0,1,1,3.63,1
10,25,2,0,1,0,4.8,0
10,26,2,1,1,1,2.86,1
10,28,2,0,0,1,4.32,0
10,29,2,0,1,1,3.78,1
10,30,2,1,1,1,3.58,1
10,31,2,1,1,0,2.83,0
10,32,2,0,0,1,3,0
10,33,2,1,1,0,2.97,0
10,34,2,1,0,0,3.93,1
10,35,2,0,0,1,2.84,0
10,36,2,1,0,1,4.17,0
10,37,2,0,1,1,3.69,1
10,38,2,0,1,1,2.98,1
10,39,2,0,0,1,3.23,0
10,40,2,1,1,0,3.6,0
10,41,2,0,0,1,4.51,0
10,42,2,1,0,1,3.03,0
10,43,2,0,0,1,3.57,0
10,44,2,1,0,1,4.79,0
10,45,2,0,0,1,2.67,0
10,46,2,1,0,0,3.36,1
10,47,2,0,1,1,3.13,1
10,48,2,0,0,0,4.89,1
10,49,2,0,1,1,3.17,1
10,50,2,1,0,0,4.04,1
10,51,2,0,1,1,2.77,1
10,52,2,1,1,0,4.43,0
10,53,2,1,1,1,4.11,1
10,54,2,1,0,1,2.76,0
10,55,2,1,0,0,5.3,1
10,57,2,0,1,1,3.4,1
10,58,2,0,0,0,2.63,1
10,60,2,1,0,1,2.6,0
11,1,2,1,1,1,2.71,1
11,2,2,0,0,1,3.34,0
11,3,2,1,1,1,9.01,1
11,4,2,1,0,1,4.72,0
11,5,2,1,1,1,2.23,1
11,6,2,0,0,0,7.87,1
11,7,2,1,0,1,6.78,0
11,8,2,0,1,1,4.95,1
11,9,2,1,1,1,5.27,1
11,10,2,1,1,0,3.05,0
11,11,2,1,1,0,2.46,0
11,12,2,1,1,0,5.34,0
11,13,2,0,1,0,5.37,0
11,14,2,1,1,1,5.65,1
11,15,2,0,1,0,4.48,0
11,16,2,0,0,1,5.61,0
11,17,2,1,0,1,4.52,0
11,18,2,0,1,1,3.84,1
11,19,2,0,0,1,7.76,0
11,20,2,1,0,0,4.07,1
11,21,2,0,0,0,3.4,1
11,22,2,0,1,1,3.86,1
11,24,2,1,1,1,6.85,1
11,25,2,1,0,0,6.32,1
11,26,2,0,0,1,2.56,0
11,27,2,1,0,1,9.47,0
11,28,2,0,1,1,4.15,1
11,29,2,1,1,1,5.1,1
11,30,2,0,0,1,2.83,0
11,31,2,1,0,0,4.35,1
11,32,2,1,1,1,4.15,1
11,33,2,1,1,1,3.9,1
11,34,2,1,1,0,4.03,0
11,35,2,0,1,0,5.92,0
11,36,2,0,0,0,3.95,1
11,37,2,0,0,0,5.52,1
11,38,2,1,0,1,4.19,0
11,39,2,0,0,0,5.44,1
11,40,2,1,0,1,4.65,0
11,41,2,0,1,0,5.16,0
11,42,2,0,0,1,9.04,0
11,43,2,0,1,1,4.4,1
11,44,2,1,0,1,3.66,0
11,45,2,0,1,1,4.2,1
11,46,2,0,0,0,4.51,1
11,47,2,0,1,1,4.29,1
11,48,2,0,1,0,4.07,0
11,49,2,0,1,0,3.85,0
11,50,2,0,0,0,7.28,1
11,51,2,1,0,1,3.65,0
11,52,2,1,0,1,3.38,0
11,53,2,0,1,1,6.81,1
11,54,2,0,0,1,4.08,0
11,55,2,1,1,0,2.99,0
11,56,2,0,1,1,3.78,1
11,57,2,1,1,1,4.35,1
11,58,2,0,0,1,6.54,0
11,59,2,1,0,0,3.27,1
11,60,2,1,0,0,2.8,1
12,1,2,0,0,1,5.31,0
12,2,2,0,1,1,6.78,1
12,3,2,1,1,0,8.16,0
12,4,2,1,1,1,4.22,1
12,5,2,1,0,0,3.8,1
12,6,2,1,1,1,4.68,1
12,7,2,0,0,1,5.83,0
12,8,2,0,1,0,3.85,0
12,9,2,1,1,1,5.98,1
12,10,2,1,0,1,4.98,0
12,11,2,1,0,0,3.95,1
12,12,2,0,1,1,5.33,1
12,13,2,0,0,1,5.19,0
12,14,2,1,1,0,3.72,0
12,16,2,1,0,1,7.49,0
12,17,2,0,1,1,9.07,1
12,18,2,0,0,0,7.05,1
12,19,2,0,1,1,3.33,1
12,21,2,1,0,0,6.43,1
12,22,2,0,1,0,9.4,0
12,23,2,1,0,1,6.63,0
12,24,2,1,0,1,8.18,0
12,25,2,0,0,1,9.83,0
12,26,2,1,1,1,3.45,1
12,28,2,0,0,1,5.23,0
12,29,2,0,0,0,4.45,1
12,30,2,0,1,1,5.72,1
12,31,2,0,1,0,4.73,0
12,32,2,0,0,0,9.5,1
12,33,2,0,1,0,7.57,0
12,35,2,1,0,1,3.89,0
12,36,2,0,1,1,4.8,1
12,37,2,0,0,1,5.82,0
12,38,2,1,0,1,3.47,0
12,40,2,1,0,0,3.8,1
12,41,2,1,0,1,7.46,0
12,42,2,0,0,1,4.62,0
12,43,2,1,1,1,6.03,1
12,44,2,0,0,0,3.4,1
12,45,2,1,0,0,6.1,1
12,46,2,1,1,1,2.73,1
12,47,2,1,0,1,4.37,0
12,48,2,0,1,0,6.25,0
12,50,2,1,0,1,4.13,0
12,51,2,0,1,0,9.76,0
12,53,2,1,1,0,8.61,0
12,54,2,0,0,0,8.03,1
12,55,2,0,0,1,7.55,0
12,56,2,1,1,1,4.73,1
12,57,2,0,1,0,3.79,0
12,58,2,0,0,0,5.22,1
12,59,2,0,1,0,3.32,0
12,60,2,1,1,0,4.91,0
13,1,2,1,0,1,2.52,0
13,2,2,1,1,1,3.11,1
13,3,2,0,1,0,4.37,0
13,4,2,1,0,1,2.78,0
13,5,2,0,0,0,4.7,1
13,6,2,1,1,1,2.89,1
13,7,2,0,1,1,4.16,1
13,8,2,0,0,1,5.03,0
13,9,2,1,1,1,5.52,1
13,10,2,1,0,0,3.08,1
13,11,2,0,1,1,5.24,1
13,12,2,1,0,1,3.36,0
13,13,2,0,1,0,4.36,0
13,14,2,0,0,0,4.9,1
13,15,2,0,0,1,5.12,0
13,16,2,1,0,1,3.65,0
13,17,2,1,1,0,3.92,0
13,18,2,0,0,0,6.98,1
13,19,2,1,0,0,4.44,1
13,20,2,1,0,1,2.51,0
13,21,2,0,1,1,4.25,1
13,22,2,1,0,0,2.99,1
13,23,2,0,0,1,2.86,0
13,24,2,0,0,0,4.08,1
13,25,2,1,0,1,3.02,0
13,26,2,1,0,1,3.16,0
13,27,2,0,0,0,3.24,1
13,28,2,0,0,1,4.92,0
13,29,2,0,0,1,3.37,0
13,30,2,1,0,1,4.02,0
13,31,2,0,1,0,5.09,0
13,32,2,1,0,1,3.84,0
13,33,2,0,1,1,7.66,1
13,35,2,0,0,0,4.52,1
13,36,2,1,1,1,5.81,1
13,37,2,0,1,0,4.07,0
13,38,2,0,0,1,5.67,0
13,39,2,1,1,0,3.48,0
13,40,2,1,1,1,4.89,1
13,41,2,0,1,1,4.67,1
13,42,2,0,1,1,5.39,1
13,43,2,0,0,0,3.88,1
13,44,2,1,1,1,2.93,1
13,45,2,0,0,1,4.69,0
13,46,2,1,0,1,3.1,0
13,47,2,0,0,1,3.1,0
13,48,2,1,1,1,2.83,1
13,49,2,1,1,0,4.33,0
13,50,2,1,1,0,5.58,0
13,51,2,1,1,1,3.91,1
13,52,2,1,0,1,5.38,0
13,53,2,1,0,0,7.32,1
13,54,2,0,1,1,3.12,1
13,55,2,0,1,1,4.82,1
13,56,2,1,1,0,4.34,0
13,57,2,1,1,1,3.61,1
13,58,2,0,1,0,5.12,0
13,59,2,1,1,1,3.96,1
13,60,2,0,1,0,5.17,0
14,1,2,0,1,1,3.07,1
14,2,2,1,0,1,2.05,0
14,3,2,1,0,1,4.62,0
14,4,2,1,1,1,5.8,1
14,5,2,1,0,1,3.53,0
14,6,2,0,0,0,4.26,1
14,7,2,1,1,1,6.16,1
14,8,2,0,0,0,5.35,1
14,9,2,1,1,0,4.57,0
14,10,2,1,0,1,7.19,0
14,11,2,1,0,0,6,1
14,12,2,0,0,1,5.04,0
14,13,2,0,1,1,2.72,1
14,14,2,0,1,1,3.75,1
14,15,2,1,1,1,2.1,1
14,16,2,1,0,1,3.67,0
14,17,2,0,0,1,3.17,0
14,18,2,1,1,0,5.52,0
14,19,2,0,0,1,5.6,0
14,20,2,0,1,1,3.36,1
14,21,2,1,1,1,5.86,1
14,22,2,0,0,1,5.79,0
14,23,2,1,0,1,2.4,0
14,24,2,1,0,1,4.14,0
14,25,2,0,0,1,5.66,0
14,26,2,0,1,0,4.15,0
14,27,2,0,1,1,2.22,1
14,28,2,0,0,0,5.72,1
14,29,2,1,0,1,2.3,0
14,30,2,1,1,1,2.3,1
14,31,2,1,1,0,2.87,0
14,32,2,1,0,1,2.46,0
14,33,2,0,1,1,3.88,1
14,34,2,1,0,1,3.87,0
14,35,2,0,0,1,3.99,0
14,36,2,0,1,0,5.02,0
14,37,2,1,1,1,3.36,1
14,38,2,0,1,0,3.38,0
14,39,2,1,1,1,2.67,1
14,40,2,1,1,1,5.18,1
14,41,2,1,0,0,4.36,1
14,42,2,0,1,1,5.85,1
14,43,2,0,1,0,6.73,0
14,44,2,0,1,1,5.72,1
14,45,2,1,1,0,3.35,0
14,46,2,1,0,1,5.1,0
14,47,2,0,0,1,3.47,0
14,48,2,1,0,0,5.91,1
14,49,2,0,0,1,4.33,0
14,50,2,0,1,1,4.39,1
14,52,2,1,0,0,3.12,1
14,53,2,1,1,1,4.52,1
14,54,2,1,1,1,2.4,1
14,55,2,0,0,0,6.23,1
14,56,2,0,0,1,2.41,0
14,57,2,0,1,1,5.96,1
14,58,2,0,1,1,4.67,1
14,59,2,0,0,1,3.67,0
14,60,2,1,1,0,3.71,0
15,1,2,0,0,0,2.66,1
15,2,2,0,0,1,2.98,0
15,3,2,0,1,0,3.09,0
15,4,2,1,1,1,4.38,1
15,5,2,0,0,0,4.27,1
15,6,2,1,1,0,2.73,0
15,7,2,0,1,0,2.78,0
15,8,2,1,0,1,5.9,0
15,9,2,0,0,0,4.45,1
15,10,2,1,1,1,3.45,1
15,11,2,1,1,0,5.94,0
15,12,2,1,0,0,4.32,1
15,13,2,0,1,1,3.22,1
15,14,2,1,0,0,3.82,1
15,15,2,1,0,0,4.41,1
15,16,2,1,1,1,4.04,1
15,17,2,0,1,0,4.26,0
15,18,2,1,1,1,4.72,1
15,19,2,1,0,0,6.16,1
15,20,2,1,1,1,6.87,1
15,21,2,0,1,0,3.42,0
15,22,2,0,0,0,3.97,1
15,23,2,1,0,0,3.82,1
15,24,2,0,1,0,4.19,0
15,25,2,1,0,1,4.61,0
15,28,2,0,0,0,4.14,1
15,29,2,0,1,0,4.39,0
15,30,2,1,0,0,4.4,1
15,31,2,1,0,0,5.01,1
15,32,2,0,1,1,5.1,1
15,33,2,0,0,0,2.71,1
15,34,2,0,0,1,4.49,0
15,35,2,0,1,0,3.41,0
15,36,2,0,1,1,4.32,1
15,37,2,0,1,1,5.35,1
15,39,2,0,1,0,5.63,0
15,40,2,1,0,1,4.27,0
15,41,2,0,0,0,3.49,1
15,42,2,0,0,1,2.96,0
15,43,2,1,1,1,2.74,1
15,44,2,0,1,1,3.6,1
15,45,2,1,1,0,2.44,0
15,46,2,0,0,1,2.97,0
15,47,2,0,0,0,3.96,1
15,48,2,1,1,0,3.34,0
15,49,2,1,0,0,2.63,1
15,50,2,1,1,0,4.1,0
15,51,2,1,0,0,4.34,1
15,52,2,1,0,1,2.74,0
15,53,2,0,0,0,5.75,1
15,54,2,1,1,0,4.12,0
15,56,2,0,1,0,4.2,0
15,57,2,1,0,0,5.48,1
15,58,2,0,0,1,4.26,0
15,59,2,1,1,0,4.79,0
15,60,2,1,1,1,2.83,1
16,1,2,0,0,0,2.58,1
16,2,2,1,1,1,2.66,1
16,3,2,0,0,1,2.35,0
16,4,2,1,0,1,3.35,0
16,5,2,0,0,0,2.94,1
16,6,2,0,1,1,2.25,1
16,7,2,0,1,1,4.38,1
16,8,2,0,1,1,2.84,1
16,9,2,0,0,1,2.62,0
16,10,2,1,0,1,2.68,0
16,11,2,1,1,1,2.41,1
16,12,2,1,1,1,2.26,1
16,13,2,0,1,0,2.48,0
16,14,2,1,0,0,3.17,1
16,15,2,1,1,0,3.47,0
16,16,2,0,1,1,3.79,1
16,17,2,1,1,1,2.17,1
16,18,2,1,1,1,1.83,1
16,19,2,1,0,0,2.76,1
16,20,2,0,1,0,2.47,0
16,21,2,1,1,0,2.05,0
16,22,2,0,0,0,3.13,1
16,23,2,0,0,0,2.17,1
16,24,2,1,0,1,1.98,0
16,25,2,0,0,0,5.03,1
16,26,2,1,1,0,2.25,0
16,27,2,1,1,1,2.62,1
16,28,2,1,1,0,3.08,0
16,29,2,1,0,1,2.83,0
16,30,2,1,0,1,2.89,0
16,31,2,0,0,0,2.9,1
16,32,2,0,1,0,2.52,0
16,33,2,0,0,1,2.19,0
16,34,2,1,0,1,2.12,0
16,35,2,1,1,0,2.37,0
16,36,2,0,1,0,1.87,0
16,37,2,1,0,0,4.28,1
16,38,2,1,1,1,2.02,1
16,39,2,0,1,1,2.12,1
16,40,2,1,0,0,2.02,1
16,41,2,0,0,0,3,1
16,42,2,0,1,0,2.42,0
16,43,2,1,0,1,2.82,0
16,44,2,1,1,0,4.64,0
16,45,2,1,0,1,2.61,0
16,46,2,0,1,0,5.04,0
16,47,2,0,0,0,2.27,1
16,48,2,1,0,1,2.71,0
16,49,2,0,0,0,4.5,1
16,50,2,1,1,1,3.54,1
16,51,2,1,0,1,3.49,0
16,52,2,1,1,1,2.93,1
16,53,2,0,0,1,3.77,0
16,54,2,0,1,1,3.86,1
16,55,2,0,1,1,1.74,1
16,56,2,0,0,0,3.67,1
16,57,2,1,0,1,2.82,0
16,58,2,0,1,0,3,0
16,59,2,0,0,1,2.71,0
16,60,2,0,1,1,3.17,1
17,1,2,0,0,1,3.42,0
17,2,2,0,0,0,2.96,1
17,3,2,1,1,1,2.2,1
17,4,2,1,0,0,3.99,1
17,5,2,1,0,1,3.44,0
17,6,2,1,1,0,4.33,0
17,7,2,0,1,1,3.53,1
17,8,2,0,1,0,2.87,0
17,9,2,1,1,0,3.57,0
17,10,2,0,0,0,4.31,1
17,11,2,1,1,1,2.77,1
17,12,2,1,0,0,2.86,1
17,13,2,1,0,1,2.82,0
17,14,2,0,1,1,2.99,1
17,15,2,0,0,1,3.18,0
17,16,2,1,1,1,2.71,1
17,17,2,0,1,0,2.33,0
17,18,2,0,1,1,2.09,1
17,19,2,0,1,1,2.25,1
17,20,2,1,0,1,3.29,0
17,21,2,1,1,1,6.32,1
17,22,2,0,0,0,2.99,1
17,24,2,0,1,1,2.35,1
17,25,2,1,1,0,2.07,0
17,26,2,0,0,0,5.98,1
17,27,2,0,0,1,3.78,0
17,28,2,1,0,0,2.89,1
17,29,2,0,0,1,2.61,0
17,30,2,1,0,1,3.87,0
17,31,2,0,1,0,2.94,0
17,32,2,1,1,1,2.91,1
17,33,2,1,1,0,1.91,0
17,34,2,1,0,1,2.65,0
17,35,2,1,0,1,2.39,0
17,36,2,1,1,0,3.73,0
17,37,2,0,0,1,6.28,0
17,38,2,0,1,0,3.31,0
17,39,2,0,1,1,6.57,1
17,40,2,1,0,0,3.13,1
17,41,2,0,1,0,2.02,0
17,42,2,0,0,1,3.47,0
17,43,2,1,1,1,2.68,1
17,44,2,0,1,1,3.98,1
17,45,2,1,0,1,2.75,0
17,47,2,1,1,1,2.81,1
17,48,2,0,0,0,3.64,1
17,49,2,1,0,1,1.96,0
17,50,2,0,0,1,2.8,0
17,51,2,1,1,0,2.69,0
17,52,2,0,0,0,4.1,1
17,53,2,1,1,1,2.22,1
17,54,2,0,1,0,4.62,0
17,55,2,0,1,1,2.17,1
17,56,2,1,0,1,2.9,0
17,57,2,1,0,1,2.13,0
17,58,2,0,1,0,2.7,0
17,59,2,0,0,0,5.42,1
17,60,2,0,0,1,2.91,0
18,1,2,1,1,0,2.95,0
18,2,2,1,1,1,2.58,1
18,3,2,1,1,1,2.87,1
18,4,2,0,1,1,4.57,1
18,5,2,0,1,1,2.6,1
18,6,2,1,0,1,3.33,0
18,7,2,0,0,1,3.3,0
18,8,2,0,0,0,2,1
18,9,2,1,0,1,3.79,0
18,10,2,0,1,0,3.65,0
18,11,2,0,0,1,2.94,0
18,12,2,1,0,1,5.83,0
18,13,2,1,0,1,2.74,0
18,14,2,1,0,1,4.62,0
18,15,2,1,1,0,3.77,0
18,16,2,0,1,1,2.89,1
18,17,2,0,1,0,4.6,0
18,19,2,1,1,1,5.28,1
18,20,2,0,1,0,4.88,0
18,21,2,0,0,0,3.64,1
18,22,2,0,1,1,3.32,1
18,23,2,1,0,1,5.25,0
18,24,2,1,0,1,3.3,0
18,25,2,0,0,1,5.25,0
18,26,2,0,0,0,3.79,1
18,27,2,1,1,1,3.92,1
18,28,2,0,1,0,4.18,0
18,29,2,1,1,0,5.62,0
18,31,2,1,1,0,4.53,0
18,32,2,0,1,0,4.55,0
18,33,2,0,0,1,3.89,0
18,35,2,1,0,0,2.86,1
18,36,2,0,1,1,2.69,1
18,37,2,1,1,1,4.09,1
18,38,2,1,1,0,2.89,0
18,39,2,0,1,1,4.82,1
18,40,2,1,1,1,4.97,1
18,41,2,0,1,0,6.08,0
18,42,2,0,0,0,3.78,1
18,43,2,0,0,1,3.39,0
18,44,2,1,0,1,4.84,0
18,45,2,1,1,0,2.77,0
18,46,2,1,0,1,4.75,0
18,47,2,1,0,1,3.47,0
18,48,2,1,0,0,4.47,1
18,49,2,0,1,0,2.36,0
18,50,2,0,0,1,2.86,0
18,51,2,0,0,1,3.7,0
18,52,2,1,1,0,4.27,0
18,53,2,0,0,1,5.57,0
18,54,2,1,1,1,3.88,1
18,56,2,0,1,1,2.63,1
18,57,2,1,1,1,3.9,1
18,58,2,0,0,1,3.15,0
18,59,2,0,1,0,4.02,0
18,60,2,1,0,1,5.04,0
19,1,2,0,0,1,2.4,0
19,2,2,0,0,1,2.69,0
19,3,2,0,0,1,3.1,0
19,4,2,0,1,0,3.02,0
19,5,2,1,1,1,3.27,1
19,6,2,1,0,1,5.03,0
19,7,2,1,0,0,3.1,1
19,8,2,0,0,0,3.3,1
19,9,2,0,1,0,3.48,0
19,10,2,0,0,1,3.64,0
19,11,2,0,1,1,5.63,1
19,12,2,1,1,1,2.73,1
19,13,2,1,0,0,3.04,1
19,14,2,0,1,0,4.55,0
19,15,2,1,0,0,3.81,1
19,16,2,1,0,0,1.87,1
19,17,2,0,1,1,2.96,1
19,18,2,0,1,0,2.69,0
19,19,2,1,0,0,4.08,1
19,20,2,1,0,1,2.21,0
19,21,2,0,1,1,3.88,1
19,22,2,1,1,1,2.89,1
19,23,2,1,0,1,3.24,0
19,24,2,1,1,1,2.6,1
19,25,2,1,1,1,4.15,1
19,26,2,1,1,0,2.94,0
19,27,2,0,0,1,2.87,0
19,28,2,0,0,1,2.6,0
19,29,2,0,1,1,2.91,1
19,30,2,1,1,1,2.57,1
19,31,2,0,1,1,3.28,1
19,32,2,1,1,1,3.27,1
19,33,2,0,1,0,3.46,0
19,35,2,1,0,1,4.58,0
19,36,2,0,0,1,4.38,0
19,37,2,1,0,1,2.6,0
19,38,2,1,1,1,2.75,1
19,39,2,1,0,0,2.53,1
19,40,2,1,0,1,3.44,0
19,41,2,1,1,1,4.63,1
19,42,2,1,0,1,3.63,0
19,43,2,0,0,1,3.68,0
19,44,2,0,1,1,4.02,1
19,45,2,0,1,1,3.35,1
19,46,2,1,1,1,3.26,1
19,47,2,1,1,1,3.04,1
19,48,2,0,0,0,6.08,1
19,49,2,0,0,1,2.81,0
19,50,2,0,0,1,2.38,0
19,51,2,1,1,1,3.97,1
19,52,2,0,0,0,4.45,1
19,53,2,0,0,1,4.28,0
19,54,2,0,1,0,2.75,0
19,55,2,1,0,1,2.43,0
19,56,2,0,0,1,4.73,0
19,57,2,1,1,1,1.75,1
19,58,2,0,1,1,3.1,1
19,59,2,0,1,1,4.02,1
19,60,2,1,1,0,3.9,0
20,1,2,0,0,1,2.79,0
20,2,2,0,1,1,3.6,1
20,3,2,1,0,0,2.29,1
20,4,2,1,0,1,3.71,0
20,5,2,0,1,1,6.21,1
20,6,2,0,1,1,4.72,1
20,7,2,1,1,1,3.89,1
20,8,2,1,1,0,4.05,0
20,9,2,1,0,1,2.07,0
20,10,2,1,0,0,6.1,1
20,11,2,0,0,0,4.29,1
20,12,2,1,1,1,2.31,1
20,13,2,1,0,0,4.2,1
20,14,2,0,0,1,2.69,0
20,15,2,1,1,1,2.87,1
20,16,2,0,1,0,2.99,0
20,17,2,1,1,0,3.6,0
20,18,2,1,0,1,5.79,0
20,19,2,1,0,1,1.99,0
20,20,2,0,1,1,4.89,1
20,21,2,1,1,1,3.88,1
20,22,2,1,1,0,2.39,0
20,23,2,1,0,1,3.52,0
20,24,2,0,0,0,3.95,1
20,25,2,1,0,1,3.61,0
20,26,2,1,1,1,2.45,1
20,27,2,0,1,0,4.31,0
20,28,2,0,0,1,2.77,0
20,29,2,1,1,0,3.61,0
20,30,2,0,1,0,4.06,0
20,31,2,0,1,1,3.85,1
20,32,2,0,1,1,2.87,1
20,33,2,1,0,1,3.55,0
20,34,2,0,1,1,2.8,1
20,35,2,1,0,1,3.2,0
20,36,2,0,0,1,2.44,0
20,37,2,1,1,0,2.17,0
20,38,2,0,0,1,4.47,0
20,39,2,0,0,1,2.42,0
20,40,2,0,0,1,4.51,0
20,41,2,0,0,0,3.77,1
20,42,2,0,0,0,4.32,1
20,43,2,1,1,1,4.93,1
20,44,2,1,1,0,3.81,0
20,45,2,1,0,1,3.2,0
20,46,2,0,0,1,5.33,0
20,47,2,0,0,1,3.03,0
20,48,2,1,1,0,3.7,0
20,49,2,0,1,1,4.74,1
20,50,2,0,1,1,3.1,1
20,51,2,0,1,0,3.7,0
20,52,2,1,1,0,3.78,0
20,54,2,0,1,1,2.47,1
20,55,2,0,0,1,4.57,0
20,56,2,0,0,0,3.95,1
20,57,2,1,0,0,3.56,1
20,58,2,1,1,1,2.53,1
20,59,2,0,1,1,2.63,1
20,60,2,1,0,1,3.68,0
21,1,2,1,0,0,7.11,1
21,2,2,0,0,1,3.69,0
21,3,2,0,0,1,6.68,0
21,4,2,1,1,1,4.25,1
21,5,2,0,1,0,4.04,0
21,6,2,0,1,1,4.92,1
21,7,2,0,0,1,6.74,0
21,8,2,0,1,0,6.57,0
21,9,2,0,1,0,8.3,0
21,11,2,0,1,1,3.87,1
21,12,2,0,1,1,3.82,1
21,13,2,1,1,1,5.08,1
21,14,2,0,0,1,5.03,0
21,15,2,0,0,1,3.41,0
21,16,2,0,1,0,3.26,0
21,17,2,1,0,1,3.57,0
21,18,2,1,1,1,3.57,1
21,19,2,1,0,0,3.45,1
21,20,2,0,0,0,5.84,1
21,21,2,1,1,1,3.96,1
21,22,2,1,1,1,4.79,1
21,23,2,0,1,1,8.52,1
21,24,2,0,0,0,7.52,1
21,25,2,0,0,1,4.36,0
21,26,2,0,0,1,4.72,0
21,27,2,1,0,1,3.22,0
21,28,2,0,0,1,5.2,0
21,29,2,1,1,1,5.42,1
21,30,2,1,1,0,2.57,0
21,31,2,1,0,1,3.95,0
21,32,2,1,0,1,4.23,0
21,33,2,1,0,1,2.94,0
21,34,2,0,0,1,6.71,0
21,35,2,0,1,0,6.3,0
21,36,2,1,1,1,5.73,1
21,37,2,1,1,1,7.05,1
21,38,2,0,0,0,4.34,1
21,39,2,0,0,0,3.28,1
21,40,2,0,1,0,3.25,0
21,41,2,1,1,0,6.65,0
21,42,2,1,1,1,5.7,1
21,43,2,0,1,1,2.56,1
21,44,2,1,0,1,4.6,0
21,45,2,1,1,1,2.83,1
21,46,2,1,0,0,4.21,1
21,47,2,1,0,0,3.59,1
21,48,2,1,0,0,5.77,1
21,49,2,1,1,0,2.8,0
21,50,2,1,1,1,3.92,1
21,51,2,1,0,1,4.38,0
21,52,2,1,0,1,5.73,0
21,53,2,0,1,1,4.04,1
21,54,2,0,0,0,6.35,1
21,55,2,0,1,0,4.45,0
21,56,2,0,1,1,4.89,1
21,57,2,1,0,1,8.49,0
21,58,2,0,0,1,5.69,0
21,59,2,1,1,1,5.7,1
21,60,2,1,0,1,3.1,0
22,1,2,0,1,1,3.19,1
22,2,2,0,0,0,3.12,1
22,3,2,0,1,1,2.96,1
22,4,2,1,0,0,2.27,1
22,5,2,1,0,1,3.56,0
22,6,2,1,1,1,4.95,1
22,7,2,1,1,1,2.59,1
22,8,2,1,0,0,3.66,1
22,9,2,0,0,1,3.61,0
22,10,2,0,1,0,2.89,0
22,11,2,1,1,1,2.75,1
22,12,2,0,1,0,3.64,0
22,13,2,0,1,0,3.2,0
22,14,2,1,1,1,2.37,1
22,15,2,1,1,1,3.08,1
22,16,2,0,0,0,3.81,1
22,17,2,0,0,1,2.54,0
22,18,2,1,0,1,2.63,0
22,19,2,1,1,1,3.03,1
22,20,2,1,0,0,3.47,1
22,21,2,1,0,1,4.37,0
22,22,2,1,0,1,3.44,0
22,23,2,0,1,1,3.85,1
22,24,2,1,0,1,3.55,0
22,25,2,0,0,1,2.15,0
22,26,2,0,0,0,2.85,1
22,27,2,0,0,1,4.07,0
22,28,2,0,0,0,3.93,1
22,29,2,0,1,1,2.02,1
22,30,2,0,0,1,4.08,0
22,31,2,0,0,1,2.68,0
22,32,2,0,1,1,2.16,1
22,33,2,1,0,1,3.39,0
22,34,2,0,0,0,3.94,1
22,35,2,1,1,1,4.73,1
22,36,2,0,1,1,3.05,1
22,37,2,1,1,1,2.75,1
22,38,2,0,0,1,2.72,0
22,40,2,0,0,0,3.55,1
22,41,2,0,0,1,2.85,0
22,42,2,0,1,1,2.81,1
22,43,2,0,1,0,2.64,0
22,44,2,1,1,0,3.05,0
22,45,2,1,1,1,2.15,1
22,46,2,1,0,1,2.16,0
22,47,2,1,1,0,3.25,0
22,48,2,0,1,1,3.04,1
22,49,2,1,1,1,5.03,1
22,50,2,1,0,1,2.97,0
22,51,2,1,0,1,2.18,0
22,52,2,0,1,1,1.98,1
22,53,2,1,1,0,1.91,0
22,54,2,0,1,1,2.72,1
22,55,2,1,1,1,4.77,1
22,56,2,1,0,0,4,1
22,57,2,1,0,1,2.1,0
22,58,2,0,0,0,3.8,1
22,59,2,1,1,1,2.67,1
22,60,2,0,1,0,3.09,0
23,1,2,0,0,1,3.53,0
23,2,2,0,0,1,2.52,0
23,3,2,1,1,1,4.59,1
23,4,2,1,1,0,2.77,0
23,5,2,1,1,1,2.25,1
23,6,2,0,0,1,3.01,0
23,7,2,0,1,0,3.44,0
23,8,2,0,1,0,3.59,0
23,9,2,0,0,0,2.83,1
23,10,2,1,1,0,2.71,0
23,11,2,0,0,1,3.57,0
23,12,2,1,0,1,3.26,0
23,13,2,0,1,1,3,1
23,14,2,0,1,0,3.91,0
23,15,2,0,0,1,5.37,0
23,16,2,1,1,1,3.19,1
23,17,2,0,1,0,1.73,0
23,18,2,0,1,1,3.66,1
23,19,2,1,1,1,2.52,1
23,20,2,1,0,0,2.67,1
23,22,2,0,1,0,2.38,0
23,23,2,0,1,1,4.35,1
23,24,2,0,1,1,2.25,1
23,25,2,0,0,1,2.67,0
23,26,2,0,1,1,2.16,1
23,27,2,1,0,1,2.98,0
23,28,2,0,1,0,2.62,0
23,29,2,1,0,1,2.7,0
23,30,2,1,1,1,2.63,1
23,31,2,1,1,0,2.57,0
23,32,2,1,1,1,2.19,1
23,33,2,1,0,1,3.36,0
23,34,2,1,0,1,1.85,0
23,35,2,1,0,1,2.61,0
23,36,2,1,1,1,2.35,1
23,37,2,0,0,0,2.2,1
23,38,2,1,0,1,1.99,0
23,39,2,0,1,0,2,0
23,40,2,0,0,1,1.99,0
23,41,2,0,0,0,1.61,1
23,42,2,1,0,0,2.41,1
23,43,2,1,1,1,3.5,1
23,44,2,1,0,1,3.31,0
23,45,2,1,1,1,1.98,1
23,46,2,1,0,1,2.21,0
23,47,2,1,1,1,3.42,1
23,48,2,1,1,0,1.62,0
23,49,2,1,0,1,1.79,0
23,50,2,1,0,0,1.72,1
23,51,2,0,0,0,1.84,1
23,52,2,0,1,0,2.46,0
23,53,2,1,1,0,3.32,0
23,54,2,0,1,1,1.87,1
23,55,2,0,0,1,2.19,0
23,56,2,1,0,0,2.47,1
23,57,2,0,1,0,2.46,0
23,58,2,0,0,1,3.56,0
23,59,2,0,0,0,1.91,1
23,60,2,0,0,1,2.8,0
24,1,2,0,0,0,2.7,1
24,2,2,0,1,0,4.22,0
24,3,2,1,1,0,3.73,0
24,4,2,1,1,1,5.79,1
24,5,2,0,1,1,2.14,1
24,6,2,0,0,0,3.67,1
24,7,2,0,1,0,3.22,0
24,10,2,1,0,1,2.68,0
24,12,2,1,0,1,2.6,0
24,13,2,1,1,1,3.78,1
24,14,2,1,1,1,2.09,1
24,15,2,1,1,0,2.5,0
24,16,2,1,0,0,2.07,1
24,17,2,1,0,1,3.64,0
24,19,2,1,0,1,2.84,0
24,20,2,1,0,1,4.58,0
24,21,2,0,1,1,2.98,1
24,22,2,1,1,1,5.09,1
24,23,2,0,0,0,3.25,1
24,24,2,0,1,0,2.2,0
24,25,2,0,0,0,6.79,1
24,26,2,0,1,1,2.24,1
24,27,2,1,1,0,4.88,0
24,28,2,0,0,0,5.32,1
24,29,2,1,0,1,1.77,0
24,30,2,1,0,1,1.63,0
24,31,2,1,1,1,1.94,1
24,32,2,0,1,0,2.69,0
24,33,2,1,0,0,2.55,1
24,34,2,1,1,1,1.89,1
24,35,2,1,0,1,2.97,0
24,36,2,0,0,1,2.53,0
24,37,2,1,1,0,1.56,0
24,38,2,0,0,0,2.17,1
24,39,2,0,0,0,3.47,1
24,40,2,0,1,0,3.66,0
24,41,2,1,1,1,6.33,1
24,42,2,0,1,0,2.99,0
24,43,2,1,0,0,3.07,1
24,44,2,0,0,1,2.46,0
24,45,2,0,1,0,2.39,0
24,46,2,1,1,0,2.58,0
24,47,2,1,0,0,1.58,1
24,48,2,1,0,0,4.33,1
24,49,2,0,0,0,2.54,1
24,50,2,0,0,0,3.09,1
24,51,2,0,0,0,3.24,1
24,52,2,1,0,1,3.45,0
24,53,2,0,1,0,2.6,0
24,54,2,0,1,1,4.5,1
24,55,2,0,1,1,3.05,1
24,57,2,1,0,1,2.9,0
25,1,2,1,1,1,3.24,1
25,2,2,1,1,1,3.32,1
25,3,2,0,0,0,3.16,1
25,4,2,0,1,1,4.21,1
25,5,2,0,0,0,4.72,1
25,6,2,1,1,1,4.82,1
25,7,2,1,1,1,4.79,1
25,8,2,1,1,1,4.45,1
25,9,2,0,1,0,5.32,0
25,10,2,0,1,1,4.28,1
25,11,2,1,0,1,4.55,0
25,12,2,1,1,1,5.49,1
25,13,2,0,0,1,3.23,0
25,14,2,1,0,1,4.57,0
25,15,2,1,1,1,6.75,1
25,16,2,0,1,1,4.46,1
25,17,2,1,1,1,5.56,1
25,18,2,0,1,0,4.41,0
25,19,2,0,1,1,3.55,1
25,20,2,0,1,1,4.6,1
25,21,2,0,1,1,6.81,1
25,22,2,0,0,0,3.87,1
25,23,2,0,0,1,4.22,0
25,24,2,1,0,1,3.86,0
25,25,2,0,0,0,3.82,1
25,26,2,0,0,1,5.66,0
25,27,2,0,0,0,3.47,1
25,28,2,1,0,0,5.21,1
25,29,2,1,0,1,5.1,0
25,30,2,1,1,0,6,0
25,31,2,0,0,1,6.15,0
25,32,2,0,0,1,5.44,0
25,33,2,1,0,1,5.81,0
25,34,2,0,1,1,3.6,1
25,35,2,1,0,1,3.29,0
25,36,2,0,1,1,4.34,1
25,37,2,0,0,1,5.47,0
25,38,2,1,0,0,5.4,1
25,39,2,0,1,1,3.82,1
25,40,2,1,0,1,4.43,0
25,41,2,1,0,1,4.43,0
25,42,2,0,1,0,2.9,0
25,44,2,0,0,0,5.54,1
25,45,2,0,1,1,4.2,1
25,46,2,0,0,0,5.58,1
25,47,2,1,0,0,4.11,1
25,48,2,1,1,0,3.99,0
25,49,2,1,1,1,3.84,1
25,50,2,1,1,1,3.47,1
25,51,2,0,1,1,2.57,1
25,52,2,1,1,0,3.92,0
25,53,2,1,0,1,3.39,0
25,54,2,1,1,1,6.54,1
25,55,2,0,0,1,5.2,0
25,56,2,1,1,0,4.56,0
25,57,2,0,1,1,4.45,1
25,58,2,1,0,0,4.86,1
25,59,2,0,0,0,3.92,1
25,60,2,1,0,0,5.73,1
26,1,2,1,1,1,3.3,1
26,2,2,0,0,0,4.63,1
26,3,2,0,0,1,4.15,0
26,4,2,1,1,0,4.37,0
26,5,2,0,1,1,4.35,1
26,6,2,0,0,1,4.97,0
26,7,2,0,1,0,2.98,0
26,8,2,1,1,0,3,0
26,9,2,0,0,0,3.17,1
26,10,2,1,1,1,3.46,1
26,11,2,1,0,1,4.05,0
26,12,2,1,0,0,3.37,1
26,13,2,1,1,0,3.42,0
26,14,2,1,0,1,2.55,0
26,15,2,0,1,1,4.23,1
26,16,2,0,1,1,4.35,1
26,17,2,1,0,0,5.02,1
26,18,2,1,0,1,3.21,0
26,19,2,0,1,0,4.3,0
26,20,2,0,0,0,2.67,1
26,21,2,0,0,0,2.37,1
26,22,2,0,0,1,2.57,0
26,23,2,1,0,1,3.92,0
26,24,2,0,0,1,3,0
26,25,2,0,0,1,4.86,0
26,26,2,1,0,1,2.32,0
26,27,2,0,0,0,6.67,1
26,28,2,0,1,0,3.02,0
26,29,2,0,1,0,3.65,0
26,30,2,0,0,0,4.94,1
26,32,2,0,1,0,4.75,0
26,33,2,1,1,1,2.59,1
26,34,2,0,0,1,2.71,0
26,35,2,0,1,1,2.75,1
26,36,2,0,1,0,2.33,0
26,37,2,1,0,0,3.67,1
26,38,2,1,1,1,2.02,1
26,39,2,0,1,0,3.29,0
26,40,2,1,1,1,3.79,1
26,41,2,0,1,1,3.48,1
26,42,2,0,0,1,5.03,0
26,43,2,0,1,1,3.78,1
26,44,2,1,1,0,2.45,0
26,45,2,1,1,0,3.74,0
26,46,2,1,0,0,2.4,1
26,48,2,1,1,1,3.02,1
26,49,2,1,1,1,2.43,1
26,50,2,1,0,0,3.43,1
26,51,2,1,1,0,3.62,0
26,52,2,1,1,1,3.84,1
26,53,2,1,0,1,3.05,0
26,54,2,1,1,1,2.55,1
26,55,2,0,1,1,3.08,1
26,56,2,0,0,1,3.12,0
26,57,2,0,0,0,2.52,1
26,58,2,1,0,0,2.2,1
26,59,2,1,0,1,2.22,0
26,60,2,1,0,1,3.42,0
27,1,2,1,1,1,7,1
27,2,2,0,1,1,2.75,1
27,3,2,0,0,1,3.97,0
27,4,2,0,0,1,4.12,0
27,5,2,1,1,1,7.13,1
27,6,2,1,0,0,3.26,1
27,7,2,0,0,0,6.57,1
27,9,2,1,1,1,2.95,1
27,10,2,1,0,0,4.41,1
27,11,2,0,1,1,3.03,1
27,12,2,0,1,1,6.87,1
27,13,2,0,0,1,4.98,0
27,14,2,1,1,1,5.17,1
27,15,2,1,1,1,4.86,1
27,16,2,1,1,1,5.25,1
27,17,2,0,0,1,3.12,0
27,18,2,0,0,1,3.88,0
27,19,2,0,1,0,7.36,0
27,20,2,0,1,1,4.5,1
27,21,2,0,1,0,4.92,0
27,22,2,0,1,1,4.44,1
27,23,2,0,0,1,4.69,0
27,24,2,0,1,1,5.61,1
27,25,2,0,1,1,6.98,1
27,26,2,0,0,0,4.47,1
27,27,2,1,0,1,4.58,0
27,28,2,0,1,1,6.12,1
27,29,2,1,1,1,3.47,1
27,30,2,1,0,1,5.28,0
27,31,2,1,0,1,3.42,0
27,32,2,1,1,1,4.61,1
27,33,2,1,0,1,3.09,0
27,34,2,1,1,1,4.72,1
27,35,2,0,0,0,7.15,1
27,36,2,0,1,0,3.46,0
27,37,2,1,1,1,3.72,1
27,38,2,1,0,0,5.62,1
27,39,2,1,0,1,4.22,0
27,40,2,0,1,0,7.79,0
27,41,2,1,1,1,3.87,1
27,42,2,0,0,1,3.57,0
27,43,2,0,1,1,3.67,1
27,44,2,0,0,1,5.47,0
27,45,2,0,1,1,4.02,1
27,46,2,1,0,1,5.1,0
27,47,2,1,0,1,6.82,0
27,48,2,0,0,1,4.57,0
27,49,2,1,1,1,4.45,1
27,50,2,1,1,1,2.81,1
27,51,2,0,0,1,3.03,0
27,52,2,1,0,1,3.5,0
27,53,2,1,0,0,5.47,1
27,54,2,0,1,1,5.32,1
27,55,2,1,0,0,7.03,1
27,56,2,1,0,1,3.63,0
27,57,2,1,0,1,2.8,0
27,58,2,0,0,1,3.1,0
27,59,2,1,1,1,5.02,1
27,60,2,1,1,0,6.29,0
28,1,2,1,0,0,2.17,1
28,2,2,0,1,1,3.6,1
28,3,2,0,0,0,3.02,1
28,4,2,1,0,1,2.61,0
28,5,2,0,1,1,4.9,1
28,6,2,1,0,1,2.95,0
28,7,2,0,0,1,3.28,0
28,8,2,1,1,0,4.26,0
28,9,2,1,1,1,1.89,1
28,10,2,0,1,1,2.03,1
28,11,2,0,1,0,3.95,0
28,12,2,0,0,1,3.12,0
28,13,2,0,0,0,5.58,1
28,14,2,1,0,0,2.92,1
28,15,2,0,1,0,3.61,0
28,16,2,1,0,1,3.44,0
28,17,2,0,0,1,7.3,0
28,18,2,1,1,1,3.15,1
28,19,2,0,1,0,4.15,0
28,20,2,0,0,0,3.47,1
28,21,2,0,0,1,5.67,0
28,22,2,1,1,1,4.45,1
28,23,2,1,1,1,2.43,1
28,24,2,1,1,0,5.09,0
28,25,2,0,1,1,4.41,1
28,26,2,1,1,1,2.28,1
28,27,2,1,0,1,3.7,0
28,28,2,1,1,1,2.28,1
28,29,2,1,1,0,2.51,0
28,30,2,0,1,0,1.93,0
28,31,2,1,1,0,3.43,0
28,32,2,1,0,1,3.3,0
28,33,2,1,1,1,2.83,1
28,34,2,0,0,1,3.03,0
28,36,2,1,0,0,2.33,1
28,37,2,1,1,0,4.07,0
28,38,2,1,0,0,2.06,1
28,39,2,1,1,1,3,1
28,40,2,0,0,0,2.63,1
28,41,2,0,0,1,2.12,0
28,42,2,0,0,1,4.18,0
28,43,2,0,1,0,2.7,0
28,44,2,0,1,0,1.88,0
28,45,2,0,1,1,2.13,1
28,46,2,1,0,0,2.39,1
28,47,2,1,1,1,3.68,1
28,49,2,1,0,1,2.71,0
28,50,2,1,1,1,4.45,1
28,51,2,0,0,0,2.8,1
28,52,2,1,0,1,4.13,0
28,53,2,1,0,1,2.69,0
28,54,2,0,0,1,3.24,0
28,55,2,0,1,0,2.5,0
28,56,2,0,1,0,5.53,0
28,57,2,1,0,0,2.37,1
28,58,2,0,1,1,1.93,1
28,59,2,0,0,0,3.19,1
28,60,2,0,0,0,3.51,1
29,1,2,0,0,0,2.12,1
29,2,2,1,0,1,3.4,0
29,3,2,1,1,1,3.39,1
29,4,2,1,1,0,2.43,0
29,5,2,0,1,1,5.72,1
29,6,2,1,1,1,2.7,1
29,7,2,1,0,1,2.77,0
29,8,2,0,0,1,3,0
29,9,2,0,1,0,2.51,0
29,10,2,0,0,1,7.92,0
29,11,2,0,1,1,2,1
29,12,2,0,0,0,5.15,1
29,13,2,0,1,0,2.92,0
29,14,2,0,1,0,3.05,0
29,15,2,0,0,0,2.8,1
29,16,2,1,0,0,2.02,1
29,17,2,0,1,1,2.9,1
29,18,2,0,1,0,2.17,0
29,19,2,1,0,1,3.05,0
29,20,2,0,1,0,2.69,0
29,21,2,1,1,1,3.6,1
29,22,2,0,0,0,2.13,1
29,23,2,1,0,0,5.27,1
29,24,2,0,1,1,2.45,1
29,25,2,0,1,1,4.45,1
29,26,2,0,1,0,3.65,0
29,27,2,1,0,1,3.93,0
29,28,2,1,1,1,2.58,1
29,29,2,0,0,1,3.35,0
29,30,2,1,1,0,2.87,0
29,31,2,1,1,0,3.7,0
29,32,2,1,0,0,2.93,1
29,33,2,1,1,0,2.09,0
29,34,2,0,0,0,5.13,1
29,35,2,0,0,1,4,0
29,36,2,0,0,0,2.04,1
29,37,2,0,0,0,2.88,1
29,38,2,1,0,0,3.4,1
29,39,2,0,0,1,3.5,0
29,40,2,0,1,1,2.6,1
29,41,2,1,0,1,2.67,0
29,42,2,1,1,1,3.45,1
29,44,2,1,0,0,3.7,1
29,45,2,1,1,1,3.37,1
29,46,2,0,0,1,2.45,0
29,47,2,1,1,0,5.09,0
29,48,2,1,0,0,3.35,1
29,49,2,0,1,0,2.98,0
29,50,2,1,1,1,2.78,1
29,51,2,1,0,0,2.22,1
29,52,2,1,1,1,3.4,1
29,53,2,0,1,0,2.16,0
29,54,2,0,1,0,2.84,0
29,55,2,1,1,1,4.01,1
29,56,2,0,0,1,2.67,0
29,57,2,1,0,1,3.68,0
29,58,2,0,0,1,2.25,0
29,59,2,1,0,1,3.04,0
29,60,2,1,1,1,2.45,1
30,1,2,1,0,1,4.78,0
30,2,2,1,0,1,5.17,0
30,3,2,0,1,1,5.82,1
30,4,2,1,0,1,4.03,0
30,5,2,0,0,0,4.53,1
30,6,2,1,1,0,7.65,0
30,7,2,0,0,1,3.05,0
30,8,2,1,1,1,3.81,1
30,9,2,0,0,0,5.81,1
30,10,2,1,1,1,7.62,1
30,11,2,0,1,0,9.06,0
30,12,2,1,0,0,9.02,1
30,13,2,0,1,1,5.24,1
30,14,2,1,1,1,5.31,1
30,15,2,1,0,0,7.23,1
30,16,2,0,1,1,5.05,1
30,17,2,0,0,0,5.13,1
30,18,2,0,0,1,5.65,0
30,19,2,0,0,1,6.17,0
30,20,2,1,1,0,5.65,0
30,21,2,0,0,0,5.89,1
30,22,2,1,1,1,6.35,1
30,23,2,1,1,0,4.28,0
30,24,2,1,0,1,4.83,0
30,25,2,0,1,1,4.74,1
30,26,2,1,1,0,7.18,0
30,27,2,0,0,1,4.73,0
30,28,2,1,1,0,2.87,0
30,29,2,0,0,1,5.14,0
30,30,2,0,0,1,4.11,0
30,31,2,1,0,1,6.04,0
30,32,2,1,0,0,4.26,1
30,33,2,1,1,1,4,1
30,34,2,1,0,0,4.21,1
30,35,2,0,1,0,4.08,0
30,36,2,0,1,1,5.52,1
30,38,2,0,0,0,6.9,1
30,39,2,0,1,1,7.82,1
30,40,2,1,1,1,7.66,1
30,41,2,0,1,1,7.02,1
30,42,2,0,1,0,4.85,0
30,43,2,0,1,1,3.3,1
30,44,2,0,1,1,7.74,1
30,45,2,0,1,0,4.28,0
30,46,2,0,0,1,4.22,0
30,47,2,1,0,1,3.81,0
30,48,2,1,0,0,5.2,1
30,49,2,0,0,1,3.61,0
30,50,2,1,1,1,7,1
30,51,2,1,1,1,5.3,1
30,52,2,1,0,1,4.05,0
30,53,2,1,0,1,2.74,0
30,54,2,1,0,0,3.54,1
30,55,2,1,1,0,8.16,0
30,56,2,0,1,1,5.26,1
30,58,2,1,1,1,6.25,1
30,59,2,1,0,1,3.31,0
30,60,2,0,0,1,3.78,0
31,1,2,1,0,1,1.9,0
31,2,2,1,1,1,2.45,1
31,3,2,1,0,0,2.97,1
31,4,2,1,0,0,3.97,1
31,5,2,1,1,1,2.58,1
31,6,2,0,1,1,2.77,1
31,7,2,0,0,1,3.7,0
31,8,2,1,1,1,3.19,1
31,9,2,1,1,1,2.79,1
31,10,2,0,0,1,3.13,0
31,11,2,1,1,1,2.78,1
31,12,2,0,1,1,4.47,1
31,13,2,1,1,0,4,0
31,14,2,1,1,1,3.4,1
31,15,2,1,1,1,2.14,1
31,16,2,0,0,1,5.27,0
31,17,2,0,1,0,1.64,0
31,18,2,0,0,1,2.05,0
31,19,2,0,1,0,5.35,0
31,20,2,1,1,1,3.07,1
31,21,2,0,0,1,1.8,0
31,22,2,1,0,0,7.02,1
31,23,2,0,1,0,7.62,0
31,24,2,1,0,1,5.88,0
31,25,2,1,0,1,2.12,0
31,26,2,0,1,1,1.74,1
31,27,2,0,0,1,4.14,0
31,28,2,0,0,1,2.79,0
31,29,2,0,0,1,2.64,0
31,30,2,0,1,0,2.63,0
31,31,2,0,0,1,2.07,0
31,32,2,0,0,1,2.43,0
31,33,2,1,0,0,5.55,1
31,34,2,0,1,0,2.84,0
31,35,2,0,1,1,3.29,1
31,36,2,1,1,0,2.33,0
31,37,2,1,0,1,6.12,0
31,38,2,1,0,1,3.49,0
31,40,2,1,0,0,3.22,1
31,41,2,0,1,1,3.65,1
31,42,2,0,0,1,6.08,0
31,43,2,1,1,1,4.04,1
31,44,2,1,0,1,6.49,0
31,45,2,0,0,0,2.69,1
31,46,2,0,1,0,5.21,0
31,47,2,0,1,0,1.91,0
31,48,2,0,0,0,1.82,1
31,49,2,1,1,1,3.04,1
31,50,2,1,1,1,4.35,1
31,51,2,0,0,1,4.5,0
31,52,2,1,0,1,3.85,0
31,53,2,0,0,1,2.8,0
31,54,2,1,1,0,5.2,0
31,56,2,1,0,1,4.41,0
31,57,2,0,1,1,2.14,1
31,58,2,0,1,0,5.15,0
31,59,2,1,1,1,2.25,1
31,60,2,1,0,1,3.55,0
32,1,2,0,1,1,3.21,1
32,2,2,1,0,1,3.1,0
32,3,2,0,0,1,3.69,0
32,4,2,0,0,0,3.74,1
32,5,2,0,0,0,2.97,1
32,6,2,1,0,0,3.75,1
32,7,2,1,0,0,5.82,1
32,8,2,0,1,1,3,1
32,9,2,0,0,1,4.11,0
32,10,2,1,0,1,5.62,0
32,11,2,1,0,1,4.48,0
32,12,2,0,0,0,3.72,1
32,13,2,1,0,1,3.17,0
32,14,2,0,1,0,3.94,0
32,15,2,1,0,0,3.09,1
32,16,2,0,1,1,4.09,1
32,17,2,1,0,1,3.28,0
32,18,2,1,0,1,4.84,0
32,19,2,0,1,1,4.59,1
32,20,2,1,1,0,3.65,0
32,21,2,1,1,1,3.08,1
32,22,2,1,0,0,3.58,1
32,23,2,0,1,0,5.32,0
32,24,2,1,1,0,6.52,0
32,25,2,1,1,1,5.79,1
32,26,2,0,1,0,4.35,0
32,27,2,0,0,1,3.08,0
32,28,2,0,1,1,4.95,1
32,29,2,1,1,0,4.57,0
32,30,2,1,1,1,3.41,1
32,31,2,0,1,1,3.05,1
32,32,2,1,1,0,5.47,0
32,33,2,0,0,1,6.25,0
32,34,2,0,1,1,2.65,1
32,35,2,0,0,1,4.07,0
32,36,2,0,1,0,6.29,0
32,37,2,0,1,1,5.12,1
32,38,2,0,1,1,2.79,1
32,39,2,1,1,1,2.93,1
32,40,2,0,0,0,6.27,1
32,41,2,1,1,1,4.58,1
32,42,2,1,0,1,3.57,0
32,43,2,1,1,1,2.71,1
32,44,2,1,1,1,3.59,1
32,45,2,0,0,1,3.94,0
32,46,2,1,0,1,3.72,0
32,47,2,0,0,0,4.26,1
32,48,2,0,1,1,3.82,1
32,49,2,1,0,1,3.12,0
32,50,2,1,0,1,3.05,0
32,51,2,0,0,1,2.67,0
32,52,2,1,1,1,4.4,1
32,53,2,0,0,0,5.44,1
32,54,2,0,0,1,3.77,0
32,55,2,0,0,0,3.12,1
32,56,2,1,1,1,3.35,1
32,57,2,1,0,0,3.42,1
32,58,2,1,1,1,4.12,1
32,59,2,0,1,0,5.79,0
32,60,2,1,1,1,3.55,1
33,1,2,1,1,0,2.81,0
33,2,2,1,1,1,2.42,1
33,3,2,1,1,1,2.12,1
33,4,2,0,0,1,2.11,0
33,5,2,1,0,1,3.4,0
33,6,2,1,1,1,3.48,1
33,7,2,0,0,0,2.52,1
33,8,2,1,1,0,2.25,0
33,9,2,1,1,1,2.04,1
33,10,2,1,0,1,3.5,0
33,11,2,0,0,1,2.2,0
33,12,2,1,1,1,2.21,1
33,13,2,1,0,1,2.37,0
33,14,2,1,1,1,2.02,1
33,15,2,0,0,0,3.22,1
33,16,2,0,1,1,3.37,1
33,17,2,1,0,1,2.07,0
33,18,2,0,0,1,2.28,0
33,19,2,1,0,1,1.76,0
33,20,2,1,0,1,1.73,0
33,21,2,1,1,1,1.85,1
33,22,2,0,1,1,2.17,1
33,23,2,1,0,0,2.73,1
33,24,2,0,0,1,1.96,0
33,25,2,0,1,0,2.43,0
33,26,2,1,0,1,2.6,0
33,27,2,0,1,0,2.24,0
33,28,2,1,0,0,2.05,1
33,29,2,0,1,1,2.31,1
33,30,2,1,1,1,2.17,1
33,31,2,1,0,1,3.05,0
33,32,2,0,1,1,3.46,1
33,33,2,0,1,0,2.81,0
33,34,2,0,0,0,2.31,1
33,35,2,1,0,1,2.37,0
33,36,2,1,1,1,2.81,1
33,37,2,0,1,0,2.61,0
33,38,2,0,1,0,3.3,0
33,39,2,0,0,1,2.17,0
33,41,2,1,1,1,2.2,1
33,42,2,1,0,1,3.36,0
33,43,2,0,0,0,2.89,1
33,44,2,0,0,1,3.69,0
33,45,2,0,0,0,2.31,1
33,46,2,1,1,1,3.37,1
33,47,2,0,1,0,2.94,0
33,48,2,0,1,0,3.7,0
33,49,2,1,1,0,1.75,0
33,50,2,1,0,1,1.98,0
33,51,2,0,1,0,3.21,0
33,52,2,0,1,1,2.82,1
33,53,2,0,1,1,2.67,1
33,54,2,1,1,1,2.37,1
33,55,2,0,1,1,2.51,1
33,56,2,0,0,1,2.15,0
33,57,2,0,0,0,1.63,1
33,58,2,1,0,1,3.19,0
33,59,2,0,0,1,2.34,0
33,60,2,1,0,0,3.04,1
34,1,2,0,1,1,2.74,1
34,2,2,1,0,0,2.38,1
34,3,2,1,1,0,2.38,0
34,4,2,1,1,1,2.5,1
34,5,2,1,0,1,2.15,0
34,6,2,0,0,0,2.57,1
34,7,2,1,0,0,2.91,1
34,8,2,0,0,1,2.07,0
34,9,2,0,1,1,2.17,1
34,10,2,0,0,1,2.39,0
34,11,2,0,1,0,2.95,0
34,12,2,0,1,1,2.85,1
34,13,2,0,0,0,3.42,1
34,14,2,1,0,1,1.97,0
34,15,2,0,1,1,3.22,1
34,16,2,0,0,0,2.6,1
34,17,2,0,1,0,3.87,0
34,18,2,1,1,1,1.87,1
34,19,2,1,1,1,1.47,1
34,20,2,0,0,0,1.92,1
34,21,2,1,0,1,1.65,0
34,22,2,1,1,1,2.03,1
34,23,2,1,1,1,1.85,1
34,24,2,1,1,1,2.12,1
34,25,2,1,0,1,3.2,0
34,26,2,0,0,1,2.33,0
34,27,2,1,0,1,1.62,0
34,29,2,0,0,1,1.25,0
34,30,2,0,1,1,2.39,1
34,31,2,0,0,1,2.22,0
34,32,2,1,0,1,1.63,0
34,33,2,0,1,0,2.39,0
34,34,2,1,0,1,3.48,0
34,35,2,0,1,1,1.26,1
34,36,2,1,1,1,4.25,1
34,37,2,1,0,1,1.42,0
34,38,2,0,0,0,1.77,1
34,40,2,1,1,1,3.13,1
34,41,2,1,1,1,2.1,1
34,42,2,0,0,1,2.28,0
34,43,2,0,1,0,2.12,0
34,44,2,1,0,0,2.42,1
34,45,2,1,0,0,1.56,1
34,46,2,1,1,1,2.36,1
34,47,2,0,1,0,1.7,0
34,48,2,0,0,1,3.63,0
34,49,2,1,1,0,1.68,0
34,50,2,1,0,1,3.28,0
34,51,2,0,1,1,1.98,1
34,52,2,0,0,0,1.83,1
34,53,2,1,1,1,2.22,1
34,54,2,0,1,0,3.83,0
34,55,2,0,0,0,1.37,1
34,56,2,0,1,0,3.75,0
34,57,2,1,1,1,1.61,1
34,58,2,1,1,0,2.49,0
34,59,2,1,0,1,1.75,0
34,60,2,0,1,0,2.53,0
35,1,2,0,1,0,2.08,0
35,2,2,0,0,1,2.17,0
35,3,2,1,1,1,1.28,1
35,4,2,1,1,1,2.13,1
35,5,2,1,0,1,2.18,0
35,6,2,0,0,1,2.02,0
35,7,2,0,1,0,4.1,0
35,8,2,0,0,1,1.91,0
35,9,2,1,1,0,4.33,0
35,10,2,0,0,1,2.02,0
35,11,2,1,0,1,2.71,0
35,12,2,0,1,0,2.94,0
35,13,2,0,1,0,5.83,0
35,14,2,1,1,1,1.63,1
35,15,2,1,1,0,2.64,0
35,16,2,1,1,0,4.76,0
35,17,2,0,0,1,2.37,0
35,18,2,1,0,1,1.37,0
35,19,2,0,0,1,2.32,0
35,20,2,1,0,1,1.64,0
35,21,2,0,1,0,2.42,0
35,22,2,0,1,1,2.86,1
35,23,2,1,0,1,1.77,0
35,24,2,0,1,1,3.1,1
35,25,2,1,0,1,1.56,0
35,26,2,0,1,1,1.53,1
35,27,2,0,0,1,5.31,0
35,28,2,1,1,1,2.35,1
35,29,2,1,0,0,3.62,1
35,30,2,0,0,1,3.35,0
35,31,2,1,0,0,5.05,1
35,33,2,1,1,1,6.21,1
35,34,2,1,1,1,1.43,1
35,35,2,0,0,0,5.43,1
35,36,2,0,0,1,3.21,0
35,37,2,0,0,1,2.4,0
35,38,2,0,1,0,2.08,0
35,39,2,1,0,1,4.25,0
35,40,2,0,1,1,2.66,1
35,41,2,0,1,1,3.66,1
35,42,2,0,0,1,3.22,0
35,43,2,1,1,0,2.13,0
35,44,2,1,0,0,2.53,1
35,45,2,1,0,1,2.1,0
35,46,2,1,1,1,3.26,1
35,47,2,0,1,1,1.37,1
35,48,2,1,1,1,2.65,1
35,49,2,0,0,1,3.41,0
35,50,2,0,0,0,2.91,1
35,51,2,1,0,1,1.53,0
35,52,2,0,1,0,2.87,0
35,53,2,1,0,1,2,0
35,54,2,0,1,0,2.2,0
35,55,2,1,1,1,2.03,1
35,56,2,1,1,1,4.09,1
35,57,2,1,1,0,3.4,0
35,58,2,0,1,1,1.67,1
35,59,2,1,0,1,5.45,0
35,60,2,1,0,1,3.47,0
36,1,2,0,1,1,4.63,1
36,2,2,0,0,1,2.02,0
36,3,2,0,0,0,2.28,1
36,4,2,1,1,0,2.31,0
36,5,2,0,0,0,2.13,1
36,6,2,1,0,1,1.46,0
36,7,2,0,0,1,1.77,0
36,8,2,1,0,0,3.77,1
36,9,2,1,1,0,2.47,0
36,10,2,0,0,1,3.67,0
36,11,2,1,0,1,3.24,0
36,12,2,0,1,0,3.9,0
36,13,2,0,1,1,2.92,1
36,14,2,0,0,1,2.71,0
36,15,2,0,1,1,4.01,1
36,16,2,1,1,1,2.85,1
36,17,2,0,1,1,4.86,1
36,18,2,1,0,1,1.95,0
36,19,2,1,0,1,4.46,0
36,20,2,0,1,1,2.14,1
36,21,2,1,0,1,1.91,0
36,22,2,0,1,0,4.25,0
36,23,2,1,0,1,2.2,0
36,24,2,0,1,1,2.11,1
36,25,2,0,1,0,2.78,0
36,27,2,0,1,0,1.45,0
36,28,2,1,1,0,2.55,0
36,29,2,1,0,1,3.7,0
36,30,2,1,1,0,2.74,0
36,31,2,1,1,1,1.56,1
36,32,2,1,1,1,4.38,1
36,33,2,1,0,1,2.2,0
36,34,2,0,1,1,1.73,1
36,35,2,1,1,0,3.46,0
36,36,2,0,1,1,2.06,1
36,37,2,1,1,1,5.6,1
36,38,2,1,1,1,2.07,1
36,39,2,1,1,1,2.54,1
36,40,2,1,1,0,3.18,0
36,41,2,1,1,1,2.18,1
36,42,2,1,0,1,2.36,0
36,43,2,1,0,1,2.14,0
36,44,2,1,0,1,3.85,0
36,45,2,0,1,1,1.86,1
36,46,2,0,1,1,6.02,1
36,47,2,0,0,1,4.15,0
36,48,2,1,0,0,1.82,1
36,49,2,0,0,1,5.31,0
36,50,2,0,0,1,2.19,0
36,51,2,1,0,1,5.02,0
36,52,2,0,0,1,2.39,0
36,53,2,0,0,0,4.09,1
36,54,2,1,1,1,3.2,1
36,55,2,1,1,1,3.44,1
36,56,2,0,1,1,2.42,1
36,57,2,1,0,1,3.37,0
36,58,2,0,0,1,2.85,0
36,59,2,0,0,0,2.37,1
36,60,2,0,0,0,3.23,1
37,2,2,1,1,1,2.75,1
37,3,2,0,1,1,4,1
37,4,2,1,0,1,3.89,0
37,5,2,1,1,1,2.02,1
37,6,2,1,0,1,2.69,0
37,7,2,0,0,0,3.05,1
37,8,2,0,0,1,3.51,0
37,9,2,0,0,1,3.48,0
37,10,2,1,1,1,2.38,1
37,11,2,1,0,1,3.75,0
37,12,2,1,0,0,4.22,1
37,13,2,0,1,1,4.3,1
37,14,2,0,1,1,3.3,1
37,15,2,1,1,1,2.68,1
37,16,2,0,0,0,3.46,1
37,17,2,1,0,0,4.8,1
37,18,2,1,1,1,4.68,1
37,19,2,0,0,1,2.93,0
37,20,2,1,1,1,2.67,1
37,21,2,1,0,1,3.82,0
37,22,2,0,0,1,2.87,0
37,23,2,0,1,0,4.17,0
37,24,2,0,0,1,7.7,0
37,25,2,0,0,1,2.8,0
37,26,2,0,1,0,2.16,0
37,27,2,1,1,1,3.73,1
37,28,2,0,1,1,2.96,1
37,29,2,1,0,0,4.32,1
37,31,2,1,0,0,5.38,1
37,32,2,0,0,0,3.9,1
37,33,2,1,0,1,5.52,0
37,34,2,1,1,1,2.99,1
37,35,2,1,1,1,4.7,1
37,36,2,0,1,1,4.84,1
37,37,2,0,1,0,3.77,0
37,38,2,1,1,0,3.76,0
37,39,2,0,1,1,5.41,1
37,40,2,1,0,1,3.47,0
37,41,2,0,0,1,4.2,0
37,42,2,1,1,0,3.55,0
37,43,2,1,1,1,2.62,1
37,44,2,0,0,1,4.92,0
37,45,2,0,1,1,5.85,1
37,46,2,0,0,1,3.84,0
37,47,2,1,1,1,2.83,1
37,48,2,1,1,1,3.03,1
37,49,2,1,0,1,3.87,0
37,50,2,0,0,1,2.65,0
37,51,2,0,1,1,6.71,1
37,52,2,0,1,1,4.67,1
37,53,2,1,0,0,3.94,1
37,54,2,0,0,1,2.34,0
37,55,2,1,0,1,2.51,0
37,56,2,0,1,1,2.64,1
37,57,2,1,0,0,2.39,1
37,58,2,0,0,1,4.82,0
37,59,2,0,1,1,3.69,1
37,60,2,0,1,0,2.71,0
38,1,2,0,1,0,2.55,0
38,2,2,0,1,1,2.57,1
38,3,2,0,0,1,2.78,0
38,4,2,0,1,1,2.24,1
38,5,2,0,1,0,4,0
38,6,2,1,0,0,7.01,1
38,7,2,1,0,0,4.21,1
38,8,2,1,0,0,4.77,1
38,9,2,1,1,1,2.6,1
38,10,2,1,1,1,5.46,1
38,11,2,0,0,0,2.74,1
38,12,2,1,0,0,5.86,1
38,13,2,1,0,0,3.91,1
38,14,2,0,1,0,3.79,0
38,15,2,0,1,0,4.06,0
38,16,2,1,1,0,4.72,0
38,17,2,0,1,1,3.53,1
38,18,2,1,0,1,4.99,0
38,19,2,1,1,0,2.46,0
38,20,2,0,1,0,3.09,0
38,21,2,0,1,0,2.78,0
38,22,2,0,0,1,4.73,0
38,23,2,1,1,1,3.38,1
38,24,2,1,0,0,4.47,1
38,25,2,0,0,1,2.63,0
38,26,2,0,0,1,5.55,0
38,27,2,1,0,1,3.63,0
38,28,2,0,0,1,5.61,0
38,29,2,1,1,0,6.59,0
38,30,2,0,1,1,3.51,1
38,31,2,1,1,1,3.22,1
38,32,2,0,0,0,4.24,1
38,33,2,0,1,0,1.91,0
38,34,2,1,1,1,2.73,1
38,35,2,0,1,1,2.15,1
38,36,2,1,1,0,1.91,0
38,37,2,1,1,0,3.8,0
38,38,2,0,0,1,2.68,0
38,39,2,1,0,1,1.97,0
38,40,2,0,1,1,7.82,1
38,41,2,0,0,0,5.85,1
38,43,2,1,0,1,3.45,0
38,44,2,0,0,0,2.72,1
38,45,2,1,0,0,4.09,1
38,46,2,1,1,0,4.92,0
38,47,2,1,0,0,1.89,1
38,48,2,0,0,0,5.46,1
38,49,2,0,0,0,5.23,1
38,50,2,0,1,1,5.58,1
38,51,2,0,0,0,2.87,1
38,52,2,0,0,1,4.84,0
38,53,2,1,1,0,2.39,0
38,54,2,1,1,1,3.93,1
38,55,2,1,1,1,5.05,1
38,57,2,1,1,1,8.74,1
38,58,2,1,0,1,3.97,0
38,59,2,0,1,0,4.47,0
38,60,2,1,0,1,5.18,0
39,1,2,0,1,1,2.27,1
39,2,2,1,1,1,1.53,1
39,3,2,0,0,0,2.6,1
39,4,2,1,0,1,2.05,0
39,5,2,0,0,1,3.07,0
39,6,2,1,1,1,2.47,1
39,7,2,0,1,1,2.35,1
39,8,2,1,1,0,2.98,0
39,9,2,0,0,1,3.36,0
39,10,2,1,0,0,3.46,1
39,11,2,1,0,1,4.52,0
39,12,2,1,1,0,3.12,0
39,13,2,1,1,1,3.74,1
39,14,2,1,0,1,2.92,0
39,15,2,0,1,0,4.48,0
39,16,2,0,0,1,3.18,0
39,17,2,0,0,1,4.13,0
39,18,2,0,0,1,2.93,0
39,19,2,1,0,1,4.4,0
39,20,2,1,0,1,2.52,0
39,21,2,1,1,1,6.38,1
39,22,2,0,0,1,3.24,0
39,23,2,1,0,1,4.33,0
39,24,2,1,0,0,4.71,1
39,25,2,0,1,0,5.17,0
39,26,2,0,1,1,5.47,1
39,27,2,0,1,0,2.98,0
39,28,2,1,0,1,3.16,0
39,29,2,0,0,0,4.75,1
39,30,2,1,0,1,3.17,0
39,31,2,0,0,0,4.85,1
39,32,2,1,1,0,2.75,0
39,33,2,1,0,1,2.77,0
39,34,2,1,1,1,3.52,1
39,35,2,1,1,0,5.8,0
39,36,2,0,1,0,3.82,0
39,37,2,0,1,1,5.26,1
39,38,2,0,1,0,3.93,0
39,39,2,1,1,1,6.43,1
39,40,2,1,1,0,6.28,0
39,41,2,1,1,1,2.88,1
39,42,2,0,1,0,3.71,0
39,43,2,0,1,1,5.19,1
39,44,2,0,0,1,2.86,0
39,45,2,1,0,1,3.53,0
39,47,2,1,1,1,4.38,1
39,48,2,1,1,1,4.57,1
39,49,2,1,0,1,2.43,0
39,50,2,1,1,0,2.78,0
39,51,2,1,0,1,4.77,0
39,52,2,0,0,1,2.91,0
39,53,2,0,1,0,3.69,0
39,54,2,0,0,1,4.91,0
39,55,2,1,0,0,4.33,1
39,56,2,0,0,1,3.12,0
39,57,2,0,0,1,3.19,0
39,58,2,0,1,1,4.45,1
39,59,2,0,1,1,4.4,1
39,60,2,0,1,0,2.75,0
40,1,2,1,1,1,3.43,1
40,2,2,1,0,1,2.44,0
40,3,2,0,1,1,4.33,1
40,4,2,0,0,1,3.7,0
40,5,2,0,1,1,3.98,1
40,6,2,0,0,0,5.5,1
40,7,2,1,0,1,3.06,0
40,8,2,1,0,1,2.73,0
40,9,2,0,1,1,5.53,1
40,10,2,0,1,0,4.65,0
40,11,2,0,0,1,4.17,0
40,12,2,0,0,1,4.57,0
40,13,2,1,0,1,3.3,0
40,14,2,0,0,1,3.3,0
40,15,2,1,0,1,3.27,0
40,16,2,0,0,1,4.39,0
40,17,2,0,0,0,4.23,1
40,18,2,1,0,1,5.24,0
40,19,2,0,1,0,6.8,0
40,20,2,0,1,1,3.33,1
40,21,2,1,0,1,3.77,0
40,22,2,1,1,0,5.59,0
40,23,2,1,1,1,5.47,1
40,24,2,0,1,1,5.5,1
40,25,2,1,1,1,3.8,1
40,26,2,1,1,0,2.93,0
40,27,2,0,1,1,5.6,1
40,28,2,0,1,1,3.37,1
40,29,2,1,1,1,3.28,1
40,30,2,1,1,1,3.1,1
40,31,2,0,1,0,5.17,0
40,32,2,0,0,1,6.99,0
40,33,2,0,1,1,4.09,1
40,34,2,1,1,1,2.32,1
40,35,2,1,1,0,2.11,0
40,36,2,0,1,0,4.89,0
40,37,2,1,0,1,4.2,0
40,38,2,0,0,1,6.45,0
40,39,2,1,0,0,4.38,1
40,40,2,0,1,1,5.72,1
40,41,2,0,0,0,3.74,1
40,42,2,0,1,0,6.57,0
40,43,2,1,1,1,3.19,1
40,44,2,0,0,0,4.03,1
40,45,2,1,1,0,4.39,0
40,46,2,1,1,1,3.97,1
40,47,2,1,0,1,2.19,0
40,48,2,1,0,1,5.53,0
40,49,2,1,1,1,6.23,1
40,50,2,0,0,1,7.48,0
40,51,2,0,1,1,4.34,1
40,52,2,1,1,0,4.3,0
40,53,2,0,0,0,5.85,1
40,54,2,0,0,1,4.2,0
40,55,2,0,0,0,2.77,1
40,56,2,1,1,0,6.07,0
40,57,2,1,0,0,2.12,1
40,58,2,1,0,1,6.93,0
40,59,2,1,0,1,3.75,0
40,60,2,1,0,1,4.16,0
41,1,2,1,1,0,2.73,0
41,2,2,1,1,1,3.34,1
41,3,2,1,0,0,2.37,1
41,4,2,1,0,1,2.02,0
41,5,2,1,1,1,2.35,1
41,6,2,0,0,1,2.28,0
41,7,2,0,1,0,3.43,0
41,8,2,1,1,1,2.36,1
41,9,2,1,1,1,2.88,1
41,10,2,0,0,1,2.22,0
41,11,2,1,1,0,2.46,0
41,12,2,0,0,0,2.64,1
41,13,2,0,0,1,2.09,0
41,14,2,1,1,1,1.79,1
41,15,2,0,0,0,2.74,1
41,16,2,0,0,0,2.35,1
41,17,2,1,0,1,2.25,0
41,18,2,0,0,1,2.32,0
41,19,2,0,0,1,2.4,0
41,20,2,0,0,1,3.15,0
41,21,2,1,0,0,2.46,1
41,22,2,1,1,1,2.71,1
41,23,2,0,1,1,3.08,1
41,24,2,0,1,1,2.45,1
41,25,2,1,0,1,2.5,0
41,26,2,1,1,1,2.51,1
41,27,2,1,0,1,2.83,0
41,28,2,0,0,0,3.02,1
41,29,2,0,0,1,2.43,0
41,30,2,0,1,1,2.62,1
41,31,2,1,1,0,3.45,0
41,32,2,0,1,1,2.05,1
41,33,2,0,1,1,2.95,1
41,34,2,1,0,1,3.08,0
41,35,2,0,1,0,3.76,0
41,36,2,1,0,1,2.1,0
41,37,2,0,0,0,2.72,1
41,38,2,1,1,1,1.82,1
41,39,2,1,0,0,2.74,1
41,40,2,1,0,1,2.52,0
41,41,2,1,0,1,2.89,0
41,42,2,0,1,0,2.72,0
41,43,2,1,1,0,2.42,0
41,44,2,1,0,1,2.12,0
41,45,2,0,1,0,2.21,0
41,46,2,1,1,1,3.26,1
41,47,2,0,1,0,3.05,0
41,48,2,1,0,0,3.85,1
41,49,2,0,1,0,3.39,0
41,50,2,0,1,1,2.8,1
41,51,2,1,0,1,2.72,0
41,52,2,1,0,0,3.2,1
41,54,2,1,1,1,3.09,1
41,55,2,0,1,1,2.62,1
41,56,2,1,1,1,2.05,1
41,57,2,0,0,0,2.58,1
41,58,2,0,1,1,3.75,1
41,59,2,0,0,1,3.73,0
41,60,2,0,0,0,3.52,1
42,1,2,1,1,0,3.97,0
42,2,2,0,1,1,2.99,1
42,3,2,0,1,0,3.62,0
42,4,2,0,1,1,3.38,1
42,5,2,1,0,0,3.09,1
42,6,2,1,0,1,3.64,0
42,7,2,1,1,0,2.57,0
42,8,2,1,0,1,2.62,0
42,9,2,1,1,1,3.58,1
42,10,2,1,1,0,2.88,0
42,11,2,1,0,0,2.25,1
42,12,2,1,0,0,3.1,1
42,13,2,1,0,0,2.67,1
42,14,2,0,1,1,2.31,1
42,15,2,0,1,1,4.3,1
42,16,2,0,0,1,3.65,0
42,17,2,0,0,0,3.42,1
42,18,2,1,0,1,3.3,0
42,19,2,1,1,0,3.95,0
42,20,2,1,1,0,3.05,0
42,21,2,1,0,1,2.45,0
42,22,2,1,0,1,3.99,0
42,23,2,0,1,1,3.75,1
42,24,2,0,0,1,3.4,0
42,25,2,0,0,0,3.16,1
42,26,2,1,1,0,3.8,0
42,27,2,1,1,0,3.31,0
42,28,2,1,0,0,3.14,1
42,29,2,0,0,1,2.86,0
42,30,2,0,0,1,3.19,0
42,31,2,0,1,0,3.31,0
42,32,2,1,1,0,3.56,0
42,33,2,0,0,0,5.8,1
42,34,2,0,0,0,3.1,1
42,36,2,0,1,1,4.52,1
42,37,2,1,1,1,2.54,1
42,38,2,0,1,1,4.95,1
42,39,2,0,1,0,5.23,0
42,40,2,1,1,0,4.98,0
42,41,2,0,0,0,5.59,1
42,42,2,0,1,0,3.13,0
42,43,2,0,1,0,2.94,0
42,44,2,0,0,0,2.9,1
42,45,2,1,0,1,2.35,0
42,46,2,0,0,0,2.08,1
42,47,2,1,1,0,2.51,0
42,48,2,1,1,0,3.26,0
42,49,2,1,1,0,3.58,0
42,50,2,0,0,1,3.02,0
42,51,2,0,1,1,4.5,1
42,52,2,1,1,1,2.6,1
42,53,2,0,1,0,3.64,0
42,54,2,0,0,0,4.14,1
42,55,2,0,1,1,4.72,1
42,56,2,1,0,1,3.17,0
42,57,2,0,0,0,3.61,1
42,58,2,1,0,0,4.26,1
42,59,2,1,0,1,3.16,0
42,60,2,1,0,1,3.79,0
43,1,2,0,0,1,6.47,0
43,2,2,1,0,0,7.33,1
43,3,2,1,0,0,8.89,1
43,4,2,0,1,0,6.76,0
43,5,2,1,1,1,6.5,1
43,6,2,1,0,0,9.78,1
43,7,2,0,1,0,5.47,0
43,8,2,0,1,0,4.86,0
43,11,2,0,0,1,5.8,0
43,13,2,0,0,0,6.85,1
43,14,2,0,1,0,4.9,0
43,15,2,1,1,0,5.7,0
43,16,2,1,1,0,7.35,0
43,17,2,1,1,0,5.84,0
43,18,2,1,0,1,8.33,0
43,19,2,0,0,1,6.35,0
43,21,2,1,0,0,7.28,1
43,22,2,1,1,0,3.56,0
43,23,2,1,1,0,4.22,0
43,24,2,1,0,0,4.07,1
43,25,2,0,0,1,7.74,0
43,27,2,1,0,0,4.92,1
43,28,2,0,1,0,5.07,0
43,29,2,1,1,1,7.15,1
43,30,2,1,1,0,5.59,0
43,32,2,1,0,1,6.01,0
43,33,2,0,0,0,7.74,1
43,34,2,1,0,1,8.97,0
43,35,2,1,0,1,6.06,0
43,36,2,0,0,0,4.62,1
43,37,2,1,0,0,5.71,1
43,39,2,1,1,0,3.41,0
43,40,2,0,0,1,6.51,0
43,41,2,0,1,0,9.33,0
43,42,2,0,1,1,5.93,1
43,43,2,1,1,0,7.15,0
43,44,2,0,1,0,5.85,0
43,45,2,0,0,1,8.41,0
43,46,2,0,0,1,6.8,0
43,47,2,1,1,1,6.78,1
43,49,2,1,1,0,7.81,0
43,52,2,0,1,0,4.64,0
43,53,2,0,1,0,7.39,0
43,55,2,0,0,0,3.85,1
43,56,2,0,0,0,6.7,1
43,59,2,1,1,1,7.56,1
43,60,2,0,1,1,5.37,1
44,1,2,0,1,0,5.26,0
44,2,2,1,0,1,3.27,0
44,3,2,0,1,0,5.75,0
44,4,2,0,0,1,6.01,0
44,5,2,0,0,1,3.8,0
44,6,2,1,0,1,7.11,0
44,7,2,0,0,1,5.92,0
44,8,2,1,0,1,7.3,0
44,9,2,0,0,1,5.27,0
44,10,2,1,1,1,3.55,1
44,11,2,1,1,1,5.52,1
44,12,2,0,0,1,4.05,0
44,13,2,0,0,0,6.13,1
44,14,2,1,0,1,4.46,0
44,15,2,0,1,0,6.14,0
44,16,2,1,1,1,4.73,1
44,17,2,0,0,0,7.51,1
44,18,2,0,1,1,8.96,1
44,19,2,1,0,1,6.52,0
44,20,2,0,0,0,3.81,1
44,21,2,0,1,1,4.4,1
44,22,2,1,1,1,6.32,1
44,23,2,0,1,1,4.1,1
44,24,2,1,0,1,7.87,0
44,25,2,1,1,0,5.77,0
44,26,2,0,1,0,4.04,0
44,28,2,1,0,1,3.69,0
44,29,2,1,0,1,3.57,0
44,30,2,1,1,0,7.43,0
44,31,2,0,0,1,5.22,0
44,32,2,1,0,0,4.7,1
44,33,2,0,1,0,6.52,0
44,34,2,1,1,1,5.27,1
44,35,2,1,1,0,4.32,0
44,36,2,0,1,1,3.96,1
44,37,2,1,1,1,4.75,1
44,38,2,1,1,1,4.71,1
44,39,2,1,0,1,3.32,0
44,40,2,1,0,1,3.15,0
44,41,2,1,0,1,4.77,0
44,42,2,0,0,0,7.29,1
44,43,2,0,1,1,4.76,1
44,44,2,0,1,1,3.4,1
44,45,2,1,1,1,4.02,1
44,46,2,0,1,1,7.8,1
44,48,2,1,0,0,5.41,1
44,49,2,1,0,1,4.27,0
44,50,2,0,1,0,4.31,0
44,51,2,0,0,0,5.28,1
44,52,2,1,0,1,5.44,0
44,53,2,1,1,0,5.4,0
44,54,2,1,1,1,4.29,1
44,55,2,1,1,1,3.8,1
44,56,2,1,1,1,4.51,1
44,57,2,0,1,1,6.22,1
44,58,2,0,0,1,4.21,0
44,59,2,0,0,1,3.15,0
44,60,2,0,1,1,5.62,1
45,1,2,0,0,0,2.35,1
45,2,2,1,0,0,3.52,1
45,3,2,0,1,1,2.03,1
45,4,2,0,1,0,3.98,0
45,5,2,1,0,0,3.9,1
45,6,2,0,0,0,2.49,1
45,7,2,1,1,0,5.42,0
45,8,2,0,1,1,4.01,1
45,9,2,0,0,1,2.97,0
45,10,2,0,1,1,2.99,1
45,11,2,0,0,1,3.72,0
45,12,2,1,0,1,4.02,0
45,13,2,1,0,0,3.7,1
45,14,2,0,1,0,2.49,0
45,15,2,0,0,0,2.77,1
45,16,2,0,0,1,6.05,0
45,17,2,1,1,1,2.74,1
45,18,2,0,1,0,4.08,0
45,19,2,0,1,0,2.6,0
45,20,2,0,1,1,5.87,1
45,21,2,1,0,0,7.06,1
45,22,2,1,1,0,6,0
45,23,2,0,1,1,4.92,1
45,24,2,1,1,1,5.28,1
45,25,2,0,0,0,4.62,1
45,26,2,0,1,0,5.45,0
45,27,2,0,1,0,5.48,0
45,28,2,1,0,0,3.95,1
45,29,2,0,1,1,3.12,1
45,30,2,0,0,1,2.83,0
45,31,2,1,1,1,4.32,1
45,32,2,1,1,1,3.43,1
45,33,2,0,0,1,3.63,0
45,34,2,0,0,0,2.62,1
45,35,2,0,0,0,1.8,1
45,36,2,1,1,1,5.11,1
45,37,2,1,1,0,5.37,0
45,38,2,1,0,1,2.53,0
45,39,2,1,1,1,6.22,1
45,40,2,1,1,1,3.15,1
45,41,2,1,0,1,6.97,0
45,42,2,1,1,1,2.28,1
45,43,2,1,1,1,1.96,1
45,44,2,0,0,1,2.31,0
45,45,2,1,1,1,4.26,1
45,46,2,1,0,1,3.43,0
45,47,2,1,0,1,2.87,0
45,48,2,1,0,1,7.38,0
45,49,2,1,0,0,6.1,1
45,50,2,1,0,1,2.47,0
45,51,2,1,1,1,4.05,1
45,52,2,0,0,0,3,1
45,53,2,0,1,1,3.5,1
45,54,2,0,0,0,4.49,1
45,55,2,1,0,1,2.75,0
45,56,2,0,0,0,6.15,1
45,57,2,0,1,1,4.59,1
45,59,2,0,1,0,4.83,0
45,60,2,1,1,0,7.42,0
46,2,2,1,1,1,1.86,1
46,3,2,0,0,1,2.03,0
46,4,2,0,1,0,1.54,0
46,5,2,1,1,1,1.5,1
46,6,2,1,1,0,1.73,0
46,7,2,1,0,0,2.21,1
46,8,2,0,1,1,2.47,1
46,9,2,0,0,1,2.78,0
46,10,2,1,0,1,2.74,0
46,11,2,0,1,0,1.93,0
46,12,2,1,1,1,2.37,1
46,13,2,0,0,0,3.08,1
46,14,2,0,1,1,2.4,1
46,15,2,1,1,1,2.29,1
46,16,2,1,0,1,5.07,0
46,17,2,0,1,1,4.36,1
46,18,2,1,1,0,1.64,0
46,19,2,1,1,1,1.55,1
46,20,2,0,0,1,2,0
46,21,2,1,1,0,1.15,0
46,22,2,1,1,1,1.91,1
46,23,2,1,0,1,1.35,0
46,24,2,0,0,0,2.5,1
46,25,2,1,1,1,1.75,1
46,26,2,0,0,0,3.11,1
46,27,2,1,1,1,2.31,1
46,28,2,0,1,0,3.78,0
46,29,2,0,1,0,2.32,0
46,30,2,0,0,0,2.25,1
46,31,2,1,1,0,3.23,0
46,32,2,0,1,0,3.23,0
46,33,2,0,1,1,3.04,1
46,34,2,0,1,0,4.2,0
46,35,2,0,0,0,2.94,1
46,36,2,0,0,0,1.78,1
46,37,2,1,0,0,3.15,1
46,38,2,0,0,0,3.84,1
46,39,2,0,0,0,2.15,1
46,40,2,1,1,1,2.17,1
46,41,2,0,1,0,1.67,0
46,42,2,1,0,1,3,0
46,43,2,1,0,1,1.78,0
46,44,2,1,0,0,3.23,1
46,46,2,0,1,0,2.52,0
46,47,2,0,0,0,2.53,1
46,48,2,1,0,1,2.08,0
46,49,2,0,0,1,2.17,0
46,50,2,1,0,0,3,1
46,51,2,0,1,0,3.07,0
46,52,2,0,0,0,1.92,1
46,53,2,0,0,1,2.94,0
46,54,2,1,0,1,2.73,0
46,55,2,1,1,1,2.43,1
46,56,2,1,0,0,2.93,1
46,57,2,1,0,1,2.48,0
46,58,2,1,0,0,2.79,1
46,59,2,1,0,0,3.06,1
46,60,2,1,1,1,2.21,1
47,1,2,0,0,0,4.12,1
47,2,2,1,0,1,7.71,0
47,3,2,0,1,0,4.27,0
47,4,2,0,0,1,7.07,0
47,5,2,1,0,0,4.77,1
47,6,2,1,0,0,4.49,1
47,7,2,1,0,1,3.75,0
47,8,2,0,1,0,7.1,0
47,9,2,1,1,0,5.78,0
47,10,2,1,1,1,4.76,1
47,11,2,1,0,1,3.05,0
47,12,2,0,1,0,6.58,0
47,13,2,0,0,1,5.68,0
47,14,2,0,0,1,7.13,0
47,15,2,1,1,1,3.6,1
47,16,2,1,1,1,4.61,1
47,17,2,0,1,1,8.1,1
47,18,2,1,1,1,7.44,1
47,19,2,0,0,1,3.33,0
47,20,2,1,0,0,4.53,1
47,21,2,0,1,1,5.31,1
47,22,2,1,0,1,3.6,0
47,23,2,0,1,0,8.03,0
47,24,2,1,1,0,4.77,0
47,25,2,1,1,1,4.75,1
47,26,2,1,1,1,2.99,1
47,27,2,0,0,1,3.15,0
47,29,2,1,1,1,4.57,1
47,30,2,1,1,1,7.02,1
47,31,2,0,1,1,3.34,1
47,32,2,0,1,1,7.6,1
47,33,2,1,1,0,5.95,0
47,34,2,1,0,1,2.94,0
47,35,2,0,0,0,4.44,1
47,36,2,1,0,0,5.12,1
47,37,2,0,0,1,6.23,0
47,38,2,1,1,1,5.16,1
47,39,2,1,1,1,4.14,1
47,40,2,1,0,1,2.29,0
47,41,2,1,0,1,4.07,0
47,42,2,0,1,0,5.13,0
47,43,2,1,1,1,4.65,1
47,44,2,1,1,1,2.45,1
47,45,2,0,0,1,3.77,0
47,46,2,0,1,1,3.76,1
47,47,2,0,0,1,4.1,0
47,48,2,0,0,1,4.33,0
47,49,2,0,0,1,3.09,0
47,50,2,0,1,0,6.21,0
47,51,2,0,1,0,4.89,0
47,52,2,1,0,1,4.39,0
47,53,2,0,0,1,3.4,0
47,54,2,1,0,1,6.07,0
47,55,2,0,1,1,4.38,1
47,56,2,1,0,1,4.67,0
47,57,2,0,0,1,3.15,0
47,58,2,0,1,1,7.62,1
47,59,2,0,0,1,3.78,0
47,60,2,0,1,1,2.83,1
48,1,2,0,0,0,1.88,1
48,2,2,0,1,0,3.01,0
48,3,2,0,0,1,3.22,0
48,4,2,1,0,0,3.98,1
48,5,2,0,1,0,2.48,0
48,6,2,0,1,0,3.61,0
48,7,2,0,0,1,3.32,0
48,8,2,1,1,0,3.01,0
48,9,2,0,1,0,3.07,0
48,11,2,0,0,0,3.2,1
48,12,2,1,1,0,3.43,0
48,13,2,0,1,1,3.62,1
48,14,2,0,0,0,3.86,1
48,15,2,0,1,0,5.03,0
48,16,2,0,0,1,3.7,0
48,17,2,0,1,0,9.27,0
48,18,2,0,1,0,2.8,0
48,19,2,1,0,0,3.3,1
48,20,2,1,0,0,4.32,1
48,21,2,0,0,1,2.59,0
48,22,2,0,1,0,4.67,0
48,23,2,0,0,1,2.59,0
48,24,2,0,1,1,2.93,1
48,25,2,1,0,1,5.37,0
48,26,2,1,0,1,2.88,0
48,28,2,1,0,1,5.03,0
48,29,2,0,0,1,3.37,0
48,30,2,0,1,0,4.13,0
48,31,2,1,1,1,3.47,1
48,32,2,0,1,0,2.34,0
48,33,2,1,1,1,2.74,1
48,34,2,0,1,1,3.16,1
48,35,2,0,1,1,4.7,1
48,36,2,1,0,1,5.08,0
48,37,2,1,1,1,3.24,1
48,38,2,1,0,0,3.95,1
48,39,2,1,1,1,6.44,1
48,40,2,1,1,0,3.24,0
48,41,2,0,0,1,5.81,0
48,42,2,1,1,1,5.28,1
48,43,2,1,1,1,4.03,1
48,44,2,1,1,1,5.59,1
48,45,2,1,0,0,4.57,1
48,46,2,1,1,0,3.43,0
48,47,2,1,0,0,6.94,1
48,48,2,1,0,1,6.13,0
48,49,2,0,0,0,6.18,1
48,50,2,0,0,1,5.02,0
48,51,2,1,1,1,4.68,1
48,52,2,1,0,0,3.3,1
48,53,2,0,0,1,3.28,0
48,54,2,1,0,1,3.49,0
48,55,2,0,1,0,4.87,0
48,56,2,1,0,0,5.28,1
48,57,2,1,1,0,4.31,0
48,58,2,1,0,1,3.35,0
48,59,2,1,1,0,5.28,0
48,60,2,0,0,1,3.77,0
49,1,2,1,1,0,4.09,0
49,2,2,1,1,1,2.6,1
49,3,2,1,0,1,4.21,0
49,4,2,1,0,1,4.12,0
49,5,2,1,0,1,3.29,0
49,6,2,0,1,0,2.77,0
49,7,2,0,0,1,2.42,0
49,8,2,1,1,1,3.29,1
49,9,2,1,0,0,3.77,1
49,10,2,0,0,0,2.42,1
49,11,2,0,1,1,2.89,1
49,12,2,1,1,0,2.7,0
49,13,2,0,0,0,3.09,1
49,14,2,1,0,0,3.6,1
49,15,2,0,1,1,2.42,1
49,16,2,1,1,1,5.19,1
49,17,2,0,0,0,5.1,1
49,18,2,0,0,1,2.55,0
49,19,2,0,1,1,2.7,1
49,20,2,1,1,1,3.39,1
49,21,2,1,1,1,3.15,1
49,22,2,0,0,1,4.47,0
49,23,2,1,1,0,4.77,0
49,24,2,1,1,0,3.08,0
49,25,2,0,0,1,4.88,0
49,26,2,0,1,1,4.29,1
49,27,2,1,0,1,2.55,0
49,28,2,1,0,0,2.65,1
49,29,2,1,0,1,3.84,0
49,30,2,1,0,1,4.64,0
49,31,2,1,1,1,2.47,1
49,32,2,0,1,1,3.25,1
49,33,2,0,0,0,3.31,1
49,34,2,0,1,0,3.4,0
49,35,2,0,1,1,3.74,1
49,36,2,0,1,0,2.49,0
49,37,2,1,1,1,2.27,1
49,38,2,0,0,0,2.66,1
49,39,2,0,1,0,2.79,0
49,40,2,1,0,0,2.05,1
49,41,2,1,0,1,2.5,0
49,42,2,0,1,0,5.37,0
49,43,2,1,0,1,2.33,0
49,44,2,0,0,0,2.26,1
49,45,2,1,1,0,2.64,0
49,46,2,1,1,1,4.88,1
49,47,2,0,0,1,5.05,0
49,48,2,1,0,1,3.62,0
49,51,2,1,1,1,3.05,1
49,52,2,0,0,0,3.88,1
49,53,2,1,1,1,4.12,1
49,54,2,0,0,1,4.17,0
49,55,2,0,1,1,1.99,1
49,56,2,0,0,1,2.78,0
49,57,2,1,0,0,2.19,1
49,58,2,0,1,0,6.22,0
49,59,2,1,0,1,2.28,0
49,60,2,0,1,0,2.3,0
50,1,2,0,0,1,2.39,0
50,2,2,0,1,0,2.61,0
50,3,2,0,0,0,3.47,1
50,4,2,1,0,0,3.51,1
50,5,2,1,0,0,2.87,1
50,6,2,0,1,1,4.93,1
50,7,2,1,1,1,2.18,1
50,8,2,1,0,1,2.29,0
50,9,2,0,1,0,3.45,0
50,10,2,0,0,0,4.92,1
50,11,2,1,1,1,3.58,1
50,12,2,1,1,0,1.94,0
50,13,2,0,0,1,3.24,0
50,14,2,0,0,1,2.84,0
50,15,2,0,0,1,1.89,0
50,16,2,1,0,1,3.3,0
50,17,2,1,1,0,5.13,0
50,18,2,1,0,1,2.8,0
50,19,2,1,1,1,2.47,1
50,20,2,0,0,0,1.59,1
50,21,2,1,1,0,3.5,0
50,22,2,1,0,0,3.78,1
50,23,2,1,0,1,1.68,0
50,24,2,1,1,1,2.98,1
50,25,2,0,1,0,2.69,0
50,26,2,1,1,1,1.67,1
50,27,2,0,0,0,3.08,1
50,28,2,0,1,0,2.42,0
50,29,2,1,0,0,2.74,1
50,30,2,1,1,1,3.23,1
50,31,2,0,1,0,3.85,0
50,32,2,0,1,1,2.17,1
50,33,2,1,1,1,2.6,1
50,34,2,0,0,0,2.7,1
50,35,2,1,1,1,2.15,1
50,36,2,0,0,1,3.74,0
50,37,2,1,0,0,2.85,1
50,38,2,1,0,1,2.83,0
50,39,2,1,1,1,3.11,1
50,40,2,1,1,0,3.05,0
50,41,2,0,1,1,3.92,1
50,42,2,1,0,1,2.83,0
50,43,2,0,0,1,3.95,0
50,44,2,0,1,1,2.36,1
50,45,2,1,0,0,3.72,1
50,46,2,0,0,1,2.01,0
50,47,2,0,1,0,1.6,0
50,48,2,0,0,1,2.2,0
50,49,2,1,0,1,1.31,0
50,50,2,0,1,0,2.47,0
50,51,2,1,1,0,3.55,0
50,52,2,0,1,1,2.41,1
50,54,2,0,1,0,3.45,0
50,55,2,0,1,1,2.7,1
50,56,2,0,0,1,2.35,0
50,57,2,0,0,0,5.02,1
50,58,2,1,0,1,3.83,0
50,59,2,1,0,1,1.46,0
50,60,2,1,1,1,4.73,1
51,1,2,1,0,0,1.93,1
51,2,2,1,1,0,2.18,0
51,3,2,1,1,1,3.59,1
51,4,2,1,1,1,2.75,1
51,5,2,0,0,0,3.32,1
51,6,2,1,1,1,1.63,1
51,7,2,1,0,1,2.63,0
51,8,2,1,0,1,2,0
51,9,2,0,1,0,2.28,0
51,10,2,1,1,1,2.25,1
51,11,2,1,1,0,2.75,0
51,12,2,0,1,0,2.51,0
51,13,2,0,0,1,2.28,0
51,14,2,0,0,0,2.76,1
51,15,2,1,1,1,2.12,1
51,16,2,1,1,1,2.37,1
51,17,2,0,1,0,2.18,0
51,18,2,0,0,1,2.56,0
51,19,2,1,0,1,3.96,0
51,20,2,0,0,0,2.35,1
51,21,2,1,0,1,1.94,0
51,22,2,0,0,1,2.67,0
51,23,2,0,0,1,3.8,0
51,24,2,1,0,0,2.98,1
51,25,2,1,0,0,3.38,1
51,26,2,1,1,0,2.05,0
51,27,2,0,1,1,3.3,1
51,28,2,0,1,1,2.05,1
51,29,2,0,1,0,2.85,0
51,30,2,0,1,0,2.51,0
51,31,2,0,1,0,3.24,0
51,32,2,0,1,0,2.61,0
51,34,2,0,0,1,2.38,0
51,35,2,1,1,1,2.19,1
51,36,2,1,0,1,2.22,0
51,37,2,0,1,0,2.49,0
51,38,2,1,1,1,1.77,1
51,39,2,1,1,1,3.88,1
51,40,2,0,0,0,2.37,1
51,41,2,0,0,0,3.07,1
51,42,2,1,1,0,1.82,0
51,43,2,0,0,1,2.17,0
51,44,2,1,0,1,2.32,0
51,45,2,1,0,1,1.84,0
51,46,2,1,0,0,1.83,1
51,47,2,1,0,1,1.92,0
51,48,2,0,1,0,2.89,0
51,49,2,1,0,0,2.63,1
51,50,2,1,1,1,1.91,1
51,51,2,0,1,0,2.16,0
51,52,2,0,0,1,1.58,0
51,53,2,0,0,1,1.97,0
51,54,2,0,1,0,2.63,0
51,55,2,1,0,1,2.13,0
51,56,2,0,0,1,2.9,0
51,57,2,0,0,0,3.09,1
51,58,2,1,0,1,1.78,0
51,59,2,1,1,1,1.58,1
51,60,2,0,1,0,2.02,0
52,1,2,0,0,0,5.2,1
52,2,2,1,1,1,8.53,1
52,3,2,0,0,1,3.88,0
52,4,2,0,1,0,4.97,0
52,5,2,0,0,1,4.38,0
52,6,2,0,0,1,4.54,0
52,7,2,1,0,1,7.89,0
52,8,2,1,0,1,4.1,0
52,9,2,0,0,1,5.6,0
52,10,2,0,1,0,3.03,0
52,11,2,1,1,0,7.57,0
52,12,2,1,1,1,7.39,1
52,13,2,0,1,1,3.97,1
52,14,2,1,1,1,5.65,1
52,15,2,0,1,1,7.55,1
52,16,2,0,0,1,5.83,0
52,17,2,0,1,1,6.42,1
52,18,2,0,0,1,4.53,0
52,19,2,0,1,0,6.43,0
52,20,2,0,1,0,4.85,0
52,21,2,1,0,1,5.31,0
52,22,2,1,1,0,6.74,0
52,23,2,0,0,0,5.01,1
52,24,2,1,0,0,6.44,1
52,25,2,1,1,1,3.95,1
52,26,2,0,0,1,3.42,0
52,27,2,0,0,1,4.01,0
52,28,2,1,1,0,3.93,0
52,29,2,1,0,1,5.53,0
52,30,2,0,0,1,5.08,0
52,31,2,1,0,0,4.86,1
52,32,2,1,1,1,6.37,1
52,33,2,0,1,1,8.26,1
52,34,2,1,1,0,3.9,0
52,35,2,1,0,1,3.84,0
52,36,2,0,1,0,5.15,0
52,39,2,0,1,1,4.01,1
52,40,2,0,1,1,7.7,1
52,41,2,1,0,1,3.32,0
52,42,2,0,1,1,3.27,1
52,43,2,1,0,1,5.27,0
52,44,2,0,0,1,6.11,0
52,45,2,1,1,0,3.85,0
52,46,2,1,1,0,5.92,0
52,47,2,1,0,0,6.06,1
52,48,2,0,0,0,6.66,1
52,49,2,1,0,0,8.23,1
52,50,2,1,0,1,4.49,0
52,51,2,0,0,0,6.12,1
52,52,2,1,1,1,5.08,1
52,53,2,0,1,0,5.84,0
52,54,2,1,0,1,5.24,0
52,55,2,1,1,0,7.57,0
52,56,2,0,1,0,7.57,0
52,57,2,1,1,1,4.42,1
52,58,2,0,0,1,7.21,0
52,59,2,0,1,1,3.54,1
52,60,2,1,1,0,7.13,0
53,1,2,1,0,1,4.68,0
53,2,2,0,0,1,3.07,0
53,3,2,1,0,0,7.61,1
53,4,2,0,1,0,4.65,0
53,5,2,1,1,0,4.06,0
53,6,2,0,1,1,4.85,1
53,7,2,1,1,0,7.1,0
53,8,2,1,1,1,3.77,1
53,9,2,0,0,0,3.45,1
53,10,2,1,1,1,4,1
53,11,2,0,0,0,5.73,1
53,12,2,1,0,0,7.23,1
53,13,2,0,0,1,4.77,0
53,14,2,0,0,1,4.76,0
53,15,2,1,1,0,7.93,0
53,16,2,1,0,0,3.92,1
53,17,2,0,0,0,5.88,1
53,18,2,1,1,1,7.8,1
53,19,2,0,0,1,5,0
53,21,2,0,1,1,6.86,1
53,23,2,1,0,0,4.76,1
53,24,2,0,0,0,3.38,1
53,25,2,0,1,0,3.22,0
53,26,2,1,1,1,4.89,1
53,27,2,1,1,1,3.37,1
53,28,2,1,0,0,7.2,1
53,29,2,0,1,1,3.35,1
53,30,2,0,0,0,5.02,1
53,31,2,1,1,1,3.22,1
53,32,2,1,0,1,3.8,0
53,33,2,1,0,1,3.08,0
53,34,2,0,1,1,5.8,1
53,35,2,1,1,1,3.74,1
53,36,2,1,0,1,2.88,0
53,37,2,1,0,1,7.53,0
53,38,2,0,1,0,7.66,0
53,39,2,0,0,0,5.89,1
53,40,2,0,1,1,4.92,1
53,41,2,0,1,1,5.08,1
53,42,2,1,1,1,2.75,1
53,43,2,1,0,1,8.45,0
53,44,2,0,1,0,4.88,0
53,45,2,0,0,1,3.06,0
53,46,2,0,1,0,6.76,0
53,47,2,1,1,1,5.97,1
53,48,2,0,1,0,7.39,0
53,49,2,1,0,1,2.85,0
53,50,2,1,0,1,3.05,0
53,51,2,0,1,1,7.44,1
53,52,2,1,1,1,2.35,1
53,53,2,0,0,1,5.32,0
53,54,2,0,0,0,4.55,1
53,55,2,0,1,1,5.8,1
53,56,2,1,0,1,8.18,0
53,57,2,0,0,1,4.58,0
53,58,2,1,0,1,2.55,0
53,59,2,0,0,1,3.24,0
53,60,2,1,1,1,6.46,1
54,1,2,0,0,1,8.47,0
54,2,2,0,0,1,6.42,0
54,3,2,0,0,0,6.82,1
54,4,2,0,1,0,8.7,0
54,5,2,0,1,0,8.57,0
54,6,2,0,1,1,9.74,1
54,7,2,0,1,1,5.07,1
54,9,2,0,0,0,8.67,1
54,10,2,1,0,0,6,1
54,12,2,0,1,0,4.85,0
54,13,2,1,0,0,9.58,1
54,14,2,0,0,1,7.37,0
54,16,2,0,1,1,8.75,1
54,17,2,0,1,0,9.8,0
54,18,2,1,1,1,9.3,1
54,19,2,1,1,0,9.1,0
54,20,2,0,1,0,7.65,0
54,22,2,0,0,0,6.08,1
54,24,2,0,0,0,7.47,1
54,25,2,1,1,0,7.48,0
54,26,2,1,0,1,6.23,0
54,28,2,0,1,0,7.75,0
54,29,2,1,1,0,8.53,0
54,30,2,1,0,1,7.15,0
54,32,2,0,1,1,9.45,1
54,33,2,1,1,0,5.64,0
54,34,2,1,1,1,4.87,1
54,36,2,1,1,0,6.19,0
54,37,2,0,1,0,9.74,0
54,38,2,0,1,1,8.16,1
54,39,2,1,0,1,7.24,0
54,40,2,0,0,0,9.19,1
54,42,2,1,1,0,8.36,0
54,43,2,1,0,0,5.14,1
54,44,2,0,0,1,4.7,0
54,46,2,0,0,0,6.52,1
54,47,2,1,1,0,8.58,0
54,49,2,1,1,0,9.61,0
54,50,2,1,0,0,4.65,1
54,51,2,1,1,1,6.3,1
54,52,2,0,1,1,8.78,1
54,53,2,1,1,0,7.58,0
54,55,2,1,0,0,9.02,1
54,58,2,1,0,0,8.18,1
54,59,2,0,0,1,7.67,0
54,60,2,1,1,1,7.1,1
55,1,2,1,0,0,3.22,1
55,2,2,0,1,0,3.3,0
55,3,2,0,1,0,4.28,0
55,4,2,0,1,0,3.14,0
55,5,2,1,0,0,2.91,1
55,6,2,1,1,0,3.75,0
55,7,2,0,0,0,3.1,1
55,8,2,0,0,0,4.13,1
55,9,2,1,0,1,5.1,0
55,10,2,1,1,1,2.75,1
55,11,2,0,0,0,4.38,1
55,12,2,0,1,0,3.77,0
55,13,2,1,0,0,3.37,1
55,14,2,0,0,0,2.34,1
55,15,2,1,0,1,1.71,0
55,16,2,1,0,1,4.42,0
55,17,2,1,0,0,2.94,1
55,18,2,0,0,0,3.57,1
55,19,2,0,0,1,3.48,0
55,20,2,1,0,0,2.73,1
55,21,2,1,1,0,2.79,0
55,22,2,1,1,1,2.67,1
55,23,2,1,1,0,1.84,0
55,24,2,0,0,1,2.35,0
55,25,2,1,0,0,2.28,1
55,26,2,0,0,0,1.95,1
55,27,2,0,1,0,3.15,0
55,28,2,0,1,1,4.66,1
55,29,2,0,1,1,5.2,1
55,30,2,1,1,1,2.34,1
55,31,2,0,1,0,3.15,0
55,32,2,1,1,1,5.33,1
55,33,2,0,0,0,1.92,1
55,34,2,0,1,0,2.43,0
55,35,2,1,1,1,3.45,1
55,36,2,1,1,0,2.93,0
55,37,2,1,1,1,5.04,1
55,38,2,0,0,1,1.67,0
55,39,2,1,1,1,3.53,1
55,40,2,0,0,1,2.02,0
55,41,2,0,0,0,2.78,1
55,42,2,1,1,0,1.88,0
55,43,2,1,0,1,2.1,0
55,44,2,0,1,1,2.79,1
55,45,2,1,1,1,1.83,1
55,46,2,0,0,1,3.4,0
55,47,2,1,0,0,2.65,1
55,48,2,1,1,0,4.62,0
55,49,2,0,1,1,2.2,1
55,50,2,1,0,0,2.27,1
55,51,2,1,0,1,2.93,0
55,52,2,0,1,0,2.98,0
55,53,2,0,1,0,2.58,0
55,55,2,1,1,0,3.97,0
55,56,2,1,0,0,3.34,1
55,57,2,0,1,1,3.58,1
55,58,2,0,1,0,2.76,0
55,59,2,0,0,1,3.08,0
55,60,2,1,0,1,3.32,0
56,1,2,0,0,1,3.7,0
56,2,2,1,0,0,3.83,1
56,3,2,1,0,1,3.5,0
56,4,2,1,1,0,3.75,0
56,5,2,1,1,1,2.34,1
56,6,2,1,0,0,4.2,1
56,7,2,0,1,1,3.72,1
56,8,2,0,0,1,2.89,0
56,9,2,1,0,0,2.84,1
56,10,2,0,0,1,2.44,0
56,11,2,1,0,1,2.66,0
56,12,2,0,0,0,3.44,1
56,13,2,0,1,0,2.95,0
56,14,2,0,1,1,2.4,1
56,15,2,1,1,0,2.45,0
56,16,2,1,0,1,2.17,0
56,17,2,1,0,1,2.69,0
56,18,2,0,0,0,2.44,1
56,21,2,1,1,0,4.31,0
56,22,2,0,0,1,2.37,0
56,23,2,0,1,1,4.29,1
56,24,2,1,1,1,4.76,1
56,25,2,0,1,1,1.87,1
56,26,2,1,0,0,4.66,1
56,27,2,1,0,0,3.28,1
56,28,2,0,0,0,5.41,1
56,29,2,0,1,1,3.53,1
56,30,2,0,1,0,2.72,0
56,31,2,1,1,1,3.77,1
56,32,2,1,0,1,4.97,0
56,33,2,0,0,0,4.22,1
56,34,2,0,1,1,2.94,1
56,35,2,1,1,0,2,0
56,36,2,1,1,1,3.34,1
56,37,2,0,1,0,2.92,0
56,38,2,0,0,0,4.14,1
56,39,2,0,0,1,2.34,0
56,40,2,0,0,0,4.89,1
56,41,2,0,0,1,3.85,0
56,42,2,1,1,1,4.41,1
56,44,2,1,0,0,4.55,1
56,45,2,0,0,1,3.17,0
56,46,2,1,0,1,3.1,0
56,47,2,0,1,1,4.72,1
56,48,2,0,1,1,3.19,1
56,49,2,1,1,0,4.03,0
56,50,2,1,0,1,2.92,0
56,51,2,1,1,0,3.09,0
56,52,2,0,1,1,5.11,1
56,53,2,1,1,1,2.92,1
56,54,2,1,0,1,3.38,0
56,55,2,0,1,0,4.38,0
56,56,2,0,0,1,4.65,0
56,57,2,1,1,0,3.47,0
56,58,2,1,1,1,3.5,1
56,59,2,0,0,0,3.91,1
56,60,2,0,1,1,3.47,1
57,1,2,0,0,1,2.76,0
57,2,2,0,1,0,2.82,0
57,3,2,0,1,1,2.13,1
57,4,2,1,0,1,2.03,0
57,5,2,0,1,0,1.82,0
57,6,2,1,0,1,2.9,0
57,7,2,1,0,0,2.48,1
57,8,2,0,1,1,2.79,1
57,9,2,1,1,1,2.9,1
57,10,2,0,0,1,2.39,0
57,11,2,1,1,0,2.57,0
57,12,2,1,0,0,2.25,1
57,13,2,0,0,0,2.6,1
57,14,2,0,1,1,3.22,1
57,15,2,1,1,1,2.38,1
57,16,2,1,0,0,2.51,1
57,17,2,1,0,1,2.05,0
57,18,2,1,1,1,1.63,1
57,19,2,1,1,0,2.82,0
57,20,2,0,1,1,2.63,1
57,21,2,1,1,1,1.31,1
57,22,2,0,0,1,1.63,0
57,23,2,1,0,1,1.58,0
57,24,2,1,0,1,1.55,0
57,25,2,1,0,1,3.66,0
57,26,2,0,0,1,3.25,0
57,27,2,1,0,1,3.46,0
57,28,2,0,0,0,2.74,1
57,29,2,0,0,0,1.87,1
57,30,2,0,0,1,2.28,0
57,31,2,1,1,1,3.2,1
57,32,2,1,0,1,1.89,0
57,33,2,1,1,1,2.65,1
57,34,2,0,1,1,2.63,1
57,35,2,0,1,0,2.43,0
57,36,2,1,1,0,2.6,0
57,37,2,1,0,1,1.69,0
57,38,2,0,0,0,3.04,1
57,39,2,1,0,1,2.08,0
57,41,2,1,1,0,2.98,0
57,42,2,0,0,1,3.22,0
57,43,2,0,1,0,2.84,0
57,44,2,0,1,0,2.74,0
57,45,2,0,0,1,4.41,0
57,46,2,1,1,1,3.27,1
57,47,2,0,0,0,3.54,1
57,48,2,0,1,0,3.03,0
57,49,2,0,1,0,2.37,0
57,50,2,1,1,1,2.21,1
57,51,2,0,1,0,1.52,0
57,52,2,0,1,1,3.86,1
57,53,2,1,1,1,3.38,1
57,54,2,0,0,0,3.41,1
57,55,2,0,0,1,3.26,0
57,56,2,0,1,1,3.23,1
57,57,2,1,1,1,2.17,1
57,58,2,1,0,0,3.28,1
57,59,2,1,0,1,1.77,0
57,60,2,0,0,0,2.73,1
58,1,2,1,0,1,4.62,0
58,2,2,0,1,0,4.17,0
58,3,2,1,0,1,3.92,0
58,4,2,0,1,0,4.63,0
58,5,2,0,0,1,4.19,0
58,6,2,1,0,0,4.04,1
58,7,2,1,1,1,2.85,1
58,8,2,0,0,0,4.07,1
58,9,2,1,1,1,2.57,1
58,10,2,1,1,1,6.37,1
58,11,2,0,0,0,5.14,1
58,12,2,0,1,0,4.66,0
58,13,2,0,1,1,5.43,1
58,14,2,1,0,1,3.58,0
58,15,2,1,1,0,5.68,0
58,16,2,0,0,0,3.33,1
58,17,2,0,1,1,2.93,1
58,18,2,1,0,1,4.11,0
58,19,2,1,1,1,2.99,1
58,20,2,0,0,0,3.35,1
58,21,2,1,1,1,3.85,1
58,22,2,1,1,1,3.03,1
58,23,2,1,1,1,4.38,1
58,24,2,1,0,1,3.03,0
58,25,2,1,0,1,3.98,0
58,26,2,0,1,1,2.47,1
58,27,2,0,0,0,1.94,1
58,28,2,0,1,1,2.77,1
58,29,2,1,0,0,3.29,1
58,30,2,1,0,1,2.48,0
58,31,2,1,1,1,3.77,1
58,32,2,1,0,0,2.58,1
58,33,2,0,1,0,4.11,0
58,34,2,1,0,1,5.24,0
58,35,2,1,1,1,3.68,1
58,36,2,0,1,0,2.67,0
58,38,2,1,1,1,3.02,1
58,39,2,1,0,1,2.69,0
58,40,2,1,0,1,2.95,0
58,41,2,1,0,1,2.97,0
58,42,2,0,0,1,6.92,0
58,43,2,0,0,0,2.08,1
58,44,2,0,0,1,3.23,0
58,45,2,0,0,0,3.44,1
58,46,2,1,0,1,4.22,0
58,47,2,0,0,0,4.6,1
58,48,2,1,1,0,2.99,0
58,49,2,1,1,1,2.82,1
58,50,2,0,0,1,4.24,0
58,51,2,0,1,0,5,0
58,52,2,0,1,1,3.66,1
58,53,2,0,0,1,3.05,0
58,54,2,1,1,1,2.64,1
58,55,2,0,1,1,4.59,1
58,56,2,0,1,0,4.12,0
58,57,2,1,1,1,2.92,1
58,58,2,0,1,1,4.97,1
58,59,2,0,1,0,2.86,0
58,60,2,0,0,1,2.8,0
59,1,2,0,0,0,2.92,1
59,2,2,0,1,1,1.78,1
59,3,2,1,0,0,1.7,1
59,4,2,0,0,1,1.54,0
59,5,2,1,0,1,1.83,0
59,6,2,0,1,0,1.86,0
59,8,2,0,0,1,1.42,0
59,10,2,1,1,1,1.43,1
59,11,2,1,1,1,2.34,1
59,12,2,1,1,1,1.55,1
59,14,2,0,0,1,2.46,0
59,15,2,0,1,0,1.75,0
59,16,2,0,0,1,2.82,0
59,17,2,1,0,0,2.1,1
59,18,2,0,0,0,1.67,1
59,19,2,0,1,1,1.2,1
59,20,2,0,0,1,1.37,0
59,21,2,0,0,1,1.78,0
59,22,2,1,1,1,1.13,1
59,23,2,1,0,0,2.25,1
59,24,2,1,1,1,1.75,1
59,25,2,1,1,1,1.32,1
59,26,2,1,1,0,3.77,0
59,27,2,0,1,1,2.37,1
59,28,2,0,1,0,1.21,0
59,29,2,0,1,1,2.44,1
59,30,2,1,1,1,1.22,1
59,31,2,0,0,1,1.69,0
59,32,2,1,0,1,1.49,0
59,33,2,1,0,1,1.9,0
59,34,2,1,1,1,1.78,1
59,35,2,0,0,1,1.15,0
59,36,2,0,1,1,1.21,1
59,37,2,1,0,1,2.48,0
59,38,2,1,1,1,1.59,1
59,39,2,0,0,1,2.47,0
59,40,2,1,0,1,2.63,0
59,41,2,1,1,1,1.65,1
59,42,2,0,0,1,1.84,0
59,43,2,1,1,1,1.35,1
59,44,2,0,0,1,2.12,0
59,45,2,1,0,1,1.16,0
59,46,2,0,0,1,2.1,0
59,47,2,1,0,1,3,0
59,48,2,0,1,1,2.11,1
59,49,2,0,1,0,1.7,0
59,50,2,1,1,1,2.02,1
59,51,2,0,1,1,1.2,1
59,52,2,0,1,1,1.86,1
59,53,2,1,0,1,1.93,0
59,54,2,0,0,0,2.25,1
59,55,2,0,1,1,1.41,1
59,56,2,0,1,1,1.9,1
59,57,2,1,1,1,1.35,1
59,58,2,0,1,1,2.12,1
60,1,2,1,1,0,4.16,0
60,2,2,1,0,0,3.51,1
60,3,2,1,0,1,3.69,0
60,4,2,0,1,1,4.86,1
60,5,2,1,0,0,3.7,1
60,6,2,0,1,1,3.11,1
60,7,2,1,0,1,7.69,0
60,8,2,1,0,0,5.69,1
60,9,2,0,1,1,5.98,1
60,10,2,0,1,1,4,1
60,11,2,0,0,1,8.8,0
60,12,2,0,1,0,3.34,0
60,13,2,1,1,1,4.06,1
60,15,2,0,1,0,5.05,0
60,16,2,0,0,1,3.03,0
60,17,2,0,1,0,6.77,0
60,19,2,1,0,1,5.98,0
60,20,2,0,0,0,4.46,1
60,21,2,0,0,1,5.9,0
60,22,2,0,0,0,4.93,1
60,23,2,1,1,0,8.13,0
60,25,2,0,0,1,8.72,0
60,26,2,1,1,0,5.81,0
60,27,2,1,1,1,4.59,1
60,28,2,0,1,0,6.01,0
60,29,2,0,1,0,5.65,0
60,30,2,1,0,1,5.57,0
60,31,2,0,0,0,8.05,1
60,32,2,1,0,1,4.03,0
60,33,2,0,1,0,5.43,0
60,34,2,0,1,0,8.31,0
60,35,2,1,1,0,4.62,0
60,36,2,1,0,0,6.55,1
60,37,2,0,0,0,5.02,1
60,38,2,0,1,1,6.69,1
60,39,2,1,0,0,5.3,1
60,40,2,1,0,1,3.47,0
60,41,2,0,0,1,6.24,0
60,42,2,1,1,1,5.56,1
60,43,2,1,1,0,6.58,0
60,44,2,1,0,0,7.8,1
60,45,2,1,1,1,5.21,1
60,46,2,0,0,1,3.84,0
60,47,2,0,0,1,4.33,0
60,48,2,1,0,0,8.43,1
60,49,2,1,1,1,7.19,1
60,50,2,1,1,0,4.25,0
60,51,2,1,1,1,4.06,1
60,52,2,0,0,1,6.59,0
60,53,2,0,0,1,4.76,0
60,54,2,0,1,1,5.32,1
60,55,2,0,1,0,6.64,0
60,56,2,1,1,0,5.77,0
60,57,2,0,0,1,5.26,0
60,58,2,1,1,0,4.07,0
60,59,2,1,0,0,4.5,1
60,60,2,1,1,1,4.72,1
61,1,2,0,1,0,2.18,0
61,2,2,1,1,0,4.62,0
61,3,2,0,1,1,3.55,1
61,4,2,1,1,0,3.44,0
61,5,2,0,0,0,4.13,1
61,6,2,1,0,0,3.27,1
61,8,2,1,0,1,2.69,0
61,10,2,1,0,0,3.27,1
61,11,2,0,0,1,2.37,0
61,12,2,1,1,0,2.42,0
61,13,2,0,0,0,2.94,1
61,14,2,1,1,1,4.74,1
61,15,2,0,0,1,2.28,0
61,16,2,1,1,0,3.47,0
61,17,2,1,1,1,3.6,1
61,18,2,1,0,1,2.85,0
61,19,2,1,0,1,4.33,0
61,20,2,1,0,0,3.83,1
61,21,2,1,1,1,3.62,1
61,22,2,1,0,1,3.5,0
61,23,2,1,1,1,1.88,1
61,24,2,0,0,0,3.53,1
61,25,2,1,0,0,2.26,1
61,26,2,0,1,1,2.37,1
61,27,2,0,1,0,4.03,0
61,28,2,1,1,1,3.73,1
61,29,2,0,0,1,3.66,0
61,30,2,1,1,1,2.04,1
61,31,2,0,0,1,3.01,0
61,32,2,0,1,0,2.91,0
61,33,2,1,0,1,2.85,0
61,34,2,0,1,0,2.83,0
61,35,2,0,1,1,3.37,1
61,36,2,0,1,1,3.79,1
61,37,2,0,1,1,2.37,1
61,38,2,0,1,1,2.88,1
61,39,2,1,0,1,2.38,0
61,40,2,0,1,0,2.7,0
61,41,2,1,0,1,2.96,0
61,42,2,1,1,0,2.41,0
61,43,2,1,0,1,4.4,0
61,44,2,0,0,0,3.41,1
61,45,2,0,0,1,2.25,0
61,46,2,0,1,0,2.07,0
61,47,2,1,0,1,1.96,0
61,48,2,1,1,0,2.93,0
61,49,2,1,0,1,2.63,0
61,50,2,0,1,0,1.97,0
61,51,2,1,0,1,3.98,0
61,52,2,1,1,1,1.94,1
61,53,2,0,1,0,2.19,0
61,54,2,0,0,1,2.36,0
61,55,2,0,0,1,3.52,0
61,56,2,0,0,1,3.1,0
61,57,2,0,0,0,2.3,1
61,58,2,0,0,0,2.08,1
61,59,2,1,1,1,2.3,1
61,60,2,1,1,0,1.94,0
62,1,2,0,0,1,4.71,0
62,2,2,1,1,0,5.02,0
62,3,2,1,1,0,5.77,0
62,4,2,0,1,1,4.1,1
62,5,2,1,1,1,3.04,1
62,6,2,0,0,0,2.75,1
62,7,2,1,0,1,5.01,0
62,8,2,0,0,0,4.77,1
62,9,2,1,0,1,5,0
62,10,2,1,0,1,4.37,0
62,11,2,1,1,1,3.15,1
62,12,2,0,0,1,4.86,0
62,13,2,1,0,1,4.85,0
62,14,2,0,1,1,5.12,1
62,15,2,0,0,1,7.05,0
62,16,2,0,1,1,5.07,1
62,17,2,0,0,1,4.19,0
62,18,2,1,1,0,7.6,0
62,19,2,1,0,1,6.33,0
62,20,2,1,1,0,5.63,0
62,21,2,1,0,0,5.7,1
62,22,2,0,1,0,4.92,0
62,23,2,0,1,0,4.03,0
62,24,2,1,1,1,4.96,1
62,25,2,1,1,0,4.82,0
62,26,2,0,1,1,3.82,1
62,27,2,1,0,1,7.51,0
62,28,2,1,1,0,4.19,0
62,29,2,0,0,1,3.47,0
62,30,2,0,1,1,5.81,1
62,31,2,1,1,0,3.93,0
62,32,2,1,0,1,6.03,0
62,33,2,1,0,0,4.19,1
62,34,2,1,0,1,4.78,0
62,35,2,1,0,1,4.02,0
62,36,2,1,0,1,3.85,0
62,37,2,0,0,0,5.01,1
62,38,2,0,0,0,6.4,1
62,39,2,0,1,1,5.29,1
62,40,2,0,1,1,4.52,1
62,41,2,1,0,1,4.7,0
62,42,2,0,0,0,7.63,1
62,43,2,0,1,1,3.08,1
62,44,2,1,1,1,4.98,1
62,45,2,0,1,1,7.22,1
62,46,2,1,1,0,5.08,0
62,47,2,0,0,1,4.13,0
62,48,2,0,1,0,4.41,0
62,49,2,0,1,1,6.55,1
62,50,2,1,0,0,5.56,1
62,51,2,1,1,0,3.72,0
62,52,2,0,0,1,6.62,0
62,53,2,0,0,0,7.83,1
62,54,2,0,1,0,7.73,0
62,55,2,1,0,0,5.6,1
62,56,2,0,0,1,2.95,0
62,57,2,0,1,0,5.87,0
62,58,2,1,1,0,7.78,0
62,59,2,0,0,0,3.31,1
62,60,2,1,1,0,7.95,0
63,1,2,0,1,1,3.15,1
63,2,2,0,1,0,4.97,0
63,3,2,0,1,0,7.77,0
63,4,2,0,1,0,5.71,0
63,5,2,1,1,1,2.55,1
63,6,2,0,0,1,4.78,0
63,7,2,1,0,1,2.37,0
63,8,2,1,0,1,3.92,0
63,9,2,1,0,1,3.66,0
63,10,2,0,1,0,6.94,0
63,11,2,1,1,1,6.23,1
63,13,2,0,0,1,5.46,0
63,14,2,0,0,1,4.51,0
63,15,2,1,1,1,5.39,1
63,16,2,1,1,0,5.23,0
63,17,2,0,0,1,4.52,0
63,18,2,0,0,1,4.49,0
63,19,2,1,1,1,6.49,1
63,20,2,0,0,1,3.84,0
63,21,2,0,0,1,2.89,0
63,22,2,1,0,1,4.14,0
63,23,2,0,1,0,6.01,0
63,24,2,0,1,0,4.99,0
63,25,2,0,0,1,5.09,0
63,26,2,0,1,0,3.97,0
63,27,2,1,0,1,6.33,0
63,28,2,0,0,1,6.88,0
63,29,2,0,0,1,5.45,0
63,30,2,0,1,1,4.95,1
63,31,2,0,1,1,4.17,1
63,32,2,0,1,1,4.66,1
63,33,2,0,1,0,4.29,0
63,34,2,1,0,0,4.17,1
63,35,2,1,0,1,2.26,0
63,36,2,0,1,0,3.57,0
63,37,2,0,0,1,3.9,0
63,38,2,1,1,0,4.26,0
63,39,2,1,1,0,2.92,0
63,40,2,1,1,1,5.06,1
63,41,2,0,0,1,6.91,0
63,42,2,1,0,1,6.02,0
63,43,2,1,1,0,3.66,0
63,44,2,1,1,0,4.8,0
63,45,2,1,1,0,6.56,0
63,46,2,1,1,1,3.61,1
63,47,2,0,0,1,5.07,0
63,48,2,1,1,0,3.4,0
63,50,2,1,0,0,4.1,1
63,51,2,1,0,1,3.14,0
63,52,2,1,0,0,2.78,1
63,53,2,0,1,1,3.63,1
63,54,2,0,0,0,7.04,1
63,55,2,1,0,1,9.57,0
63,56,2,1,1,1,3.3,1
63,57,2,1,0,0,3.92,1
63,58,2,1,0,0,4.28,1
63,59,2,1,1,0,5.74,0
63,60,2,0,0,1,6.74,0
64,1,2,1,0,1,2.57,0
64,2,2,1,1,0,3.65,0
64,3,2,1,0,0,2.78,1
64,4,2,1,0,0,3.08,1
64,5,2,1,0,1,2.93,0
64,6,2,1,1,1,2.7,1
64,7,2,1,1,0,2.82,0
64,8,2,0,1,1,2.88,1
64,9,2,0,0,1,2.72,0
64,10,2,0,0,0,2.98,1
64,11,2,0,1,0,3.12,0
64,12,2,0,0,1,3.46,0
64,13,2,1,1,0,2.4,0
64,14,2,0,1,1,3.16,1
64,15,2,0,1,1,3.45,1
64,16,2,0,1,0,3.61,0
64,17,2,1,0,1,3.75,0
64,18,2,0,0,1,4.97,0
64,19,2,1,0,1,4.07,0
64,20,2,1,0,0,3.93,1
64,21,2,0,0,0,3.33,1
64,22,2,1,1,1,3.02,1
64,23,2,0,1,0,4.36,0
64,24,2,0,1,1,2.79,1
64,25,2,1,1,0,3.78,0
64,26,2,0,0,1,3.79,0
64,27,2,0,1,1,3.55,1
64,28,2,1,0,1,3.55,0
64,29,2,0,0,0,3.2,1
64,30,2,1,0,1,4.32,0
64,31,2,1,1,0,3.38,0
64,32,2,0,0,1,3.34,0
64,33,2,1,0,1,4.93,0
64,34,2,0,1,0,2.47,0
64,35,2,0,1,1,3.09,1
64,36,2,0,0,0,2.97,1
64,37,2,1,1,1,3.85,1
64,38,2,1,1,0,2.25,0
64,39,2,1,1,1,4.6,1
64,40,2,0,0,1,3.38,0
64,41,2,1,1,0,2.49,0
64,42,2,0,0,1,2.52,0
64,43,2,0,1,1,2.79,1
64,44,2,1,1,0,3.69,0
64,45,2,1,0,1,1.93,0
64,46,2,0,1,1,4.65,1
64,47,2,1,1,1,4.33,1
64,48,2,1,1,1,2.95,1
64,49,2,1,0,0,4.57,1
64,51,2,0,0,0,2.95,1
64,52,2,1,0,1,3.82,0
64,53,2,0,1,0,2.9,0
64,54,2,1,1,1,4.05,1
64,55,2,0,0,0,3.26,1
64,56,2,0,0,1,2.67,0
64,57,2,0,0,0,2.65,1
64,58,2,0,1,0,4.81,0
64,59,2,0,1,0,3.4,0
64,60,2,1,0,0,2.3,1
65,1,2,0,0,1,2.27,0
65,2,2,0,0,0,2.24,1
65,3,2,1,0,1,2.3,0
65,4,2,1,1,1,2.12,1
65,5,2,1,1,1,2.33,1
65,6,2,0,0,0,2.07,1
65,7,2,1,0,1,2.07,0
65,8,2,0,0,0,2.18,1
65,9,2,0,0,0,2.4,1
65,11,2,0,1,1,1.9,1
65,12,2,0,0,0,2.1,1
65,13,2,0,1,1,1.62,1
65,14,2,1,0,1,1.86,0
65,15,2,1,0,0,2.42,1
65,16,2,1,1,0,3.59,0
65,17,2,1,0,1,2.43,0
65,18,2,0,0,1,2.17,0
65,19,2,0,1,0,2.66,0
65,20,2,0,0,1,2.46,0
65,21,2,0,1,0,2.45,0
65,22,2,1,1,1,2.67,1
65,23,2,0,0,1,2.19,0
65,24,2,0,1,1,2.9,1
65,25,2,1,0,1,2.04,0
65,26,2,0,1,0,2.71,0
65,27,2,0,1,0,2.33,0
65,28,2,0,1,0,2.3,0
65,29,2,1,1,1,2.32,1
65,30,2,0,1,0,2.93,0
65,31,2,1,1,1,1.78,1
65,32,2,1,1,0,2.98,0
65,33,2,0,1,1,2.89,1
65,34,2,1,1,1,3.14,1
65,35,2,1,0,0,2.14,1
65,36,2,1,0,1,2.09,0
65,37,2,0,1,1,2.39,1
65,38,2,0,0,1,2.88,0
65,39,2,0,0,0,2.23,1
65,40,2,1,1,0,2.46,0
65,41,2,0,0,0,2.77,1
65,42,2,1,0,0,2.7,1
65,43,2,1,1,1,3.23,1
65,44,2,0,0,1,4.3,0
65,45,2,1,1,0,2.75,0
65,46,2,1,0,1,1.76,0
65,47,2,1,0,1,2.23,0
65,48,2,1,1,0,2.67,0
65,49,2,0,1,1,3.01,1
65,50,2,1,0,1,3.06,0
65,51,2,1,0,1,2.83,0
65,52,2,1,0,0,2.59,1
65,53,2,1,1,1,3.13,1
65,54,2,0,1,0,2.11,0
65,55,2,1,0,1,2.29,0
65,56,2,0,0,1,2.41,0
65,57,2,0,1,1,2.86,1
65,58,2,0,1,1,3.13,1
65,59,2,1,1,1,2.62,1
65,60,2,1,1,0,1.86,0
66,1,2,0,0,1,5.74,0
66,2,2,0,0,1,4.07,0
66,3,2,0,0,1,5.33,0
66,4,2,1,0,1,4.98,0
66,5,2,0,0,0,7.06,1
66,6,2,1,1,1,5.05,1
66,8,2,1,1,1,3.87,1
66,9,2,0,0,0,4.51,1
66,10,2,0,1,0,6.53,0
66,11,2,0,0,1,4.77,0
66,12,2,1,1,1,3.69,1
66,13,2,1,0,1,7.43,0
66,14,2,1,0,1,4.92,0
66,15,2,1,0,1,4.35,0
66,16,2,1,1,0,5.8,0
66,17,2,1,0,1,2.47,0
66,18,2,1,0,1,3.41,0
66,19,2,0,0,0,6.4,1
66,20,2,0,1,0,4.32,0
66,21,2,1,1,1,6.6,1
66,22,2,0,1,1,5.61,1
66,23,2,0,1,1,3.24,1
66,24,2,1,0,1,4.19,0
66,25,2,1,0,1,4.47,0
66,26,2,0,1,1,6.14,1
66,27,2,1,0,1,3.25,0
66,28,2,0,1,1,3.77,1
66,29,2,0,0,0,4.73,1
66,30,2,0,1,1,4.97,1
66,31,2,1,1,1,4.7,1
66,32,2,0,0,1,5.05,0
66,33,2,1,0,0,4.67,1
66,34,2,0,0,1,3.49,0
66,35,2,1,0,0,3.74,1
66,36,2,1,1,0,5.42,0
66,37,2,0,1,0,4.55,0
66,38,2,1,0,0,5.19,1
66,39,2,0,0,1,2.66,0
66,40,2,0,0,0,6.2,1
66,41,2,0,1,1,5.81,1
66,42,2,0,1,1,3.17,1
66,43,2,1,1,1,3.18,1
66,44,2,1,1,0,4.05,0
66,45,2,0,0,1,6.77,0
66,46,2,0,1,1,4.48,1
66,47,2,0,1,1,3.02,1
66,48,2,1,0,1,5.28,0
66,49,2,1,1,1,4.52,1
66,50,2,1,1,0,4.53,0
66,51,2,0,1,1,5.7,1
66,52,2,0,1,1,3.92,1
66,53,2,1,0,1,4.47,0
66,54,2,1,1,1,3,1
66,55,2,1,1,1,2.76,1
66,56,2,1,1,1,2.9,1
66,57,2,0,1,1,5.2,1
66,58,2,0,0,1,4.26,0
66,59,2,1,0,0,3.97,1
67,1,2,0,0,1,3.09,0
67,2,2,1,0,1,2.65,0
67,3,2,0,0,0,3.66,1
67,4,2,0,1,0,3.77,0
67,5,2,0,1,1,4.83,1
67,6,2,0,1,0,5.07,0
67,7,2,1,1,0,6.99,0
67,9,2,0,1,1,4.86,1
67,10,2,0,0,1,5.84,0
67,11,2,1,0,1,2.93,0
67,12,2,0,0,0,4.67,1
67,13,2,1,0,1,4.51,0
67,14,2,1,1,0,4.04,0
67,15,2,0,0,1,4.31,0
67,16,2,1,0,0,5.33,1
67,17,2,1,0,1,3.87,0
67,18,2,1,0,0,4.92,1
67,19,2,1,1,0,4.4,0
67,20,2,1,1,1,4.46,1
67,21,2,0,0,1,5.68,0
67,22,2,1,1,0,5.07,0
67,23,2,1,1,0,4.42,0
67,24,2,0,1,0,4.94,0
67,25,2,0,1,0,6.92,0
67,26,2,1,1,0,6.95,0
67,27,2,1,0,1,6.34,0
67,29,2,1,0,1,5.87,0
67,30,2,0,0,0,2.8,1
67,31,2,0,1,1,4,1
67,32,2,1,0,0,2.68,1
67,33,2,0,0,1,4.81,0
67,35,2,1,1,1,3.28,1
67,36,2,1,0,0,3.83,1
67,37,2,0,1,0,5.74,0
67,38,2,0,0,1,7.44,0
67,39,2,0,1,0,6.86,0
67,40,2,1,1,0,2.78,0
67,41,2,0,1,1,2.64,1
67,43,2,1,1,1,4.93,1
67,44,2,1,0,1,3.69,0
67,45,2,0,1,0,2.58,0
67,47,2,1,0,1,2.62,0
67,48,2,0,0,1,2.88,0
67,49,2,0,1,1,4.72,1
67,50,2,0,0,1,3.52,0
67,51,2,0,1,1,3.57,1
67,52,2,1,0,0,3.05,1
67,53,2,1,1,1,5.18,1
67,54,2,1,1,0,3.38,0
67,55,2,0,0,0,7.39,1
67,56,2,0,0,1,7.31,0
67,57,2,1,0,0,5.69,1
67,58,2,0,1,0,2.22,0
67,59,2,1,1,1,5.3,1
67,60,2,0,0,1,3.05,0
68,1,2,0,1,0,2.58,0
68,2,2,1,0,0,4.58,1
68,3,2,1,0,0,4.23,1
68,4,2,0,1,0,3.97,0
68,5,2,0,1,0,3.28,0
68,6,2,0,1,0,6.13,0
68,7,2,1,1,1,2.73,1
68,8,2,1,1,1,4.75,1
68,9,2,1,1,0,4.96,0
68,10,2,0,0,0,5.77,1
68,11,2,0,0,0,5.75,1
68,12,2,0,0,0,5.31,1
68,13,2,0,1,1,4.33,1
68,14,2,1,1,0,6.26,0
68,15,2,0,0,1,6.28,0
68,16,2,0,0,1,4.23,0
68,17,2,1,1,0,4.86,0
68,18,2,1,1,1,7.15,1
68,19,2,1,0,1,3.31,0
68,20,2,1,1,1,5.38,1
68,22,2,1,0,1,7.47,0
68,23,2,1,1,0,4.48,0
68,24,2,0,1,1,5.12,1
68,25,2,0,1,1,4.03,1
68,26,2,1,1,1,4.45,1
68,27,2,1,0,1,4.8,0
68,28,2,1,0,1,4.56,0
68,29,2,0,0,1,5.71,0
68,30,2,1,0,1,3.18,0
68,31,2,0,1,1,5.77,1
68,32,2,0,0,1,8.1,0
68,33,2,0,0,1,5.67,0
68,34,2,0,0,1,3.92,0
68,35,2,0,1,0,5.83,0
68,36,2,0,0,1,3.09,0
68,37,2,1,0,0,5.22,1
68,38,2,0,1,1,8,1
68,39,2,0,0,1,6.2,0
68,40,2,1,0,1,3.58,0
68,41,2,1,0,1,4.18,0
68,42,2,1,1,1,7.2,1
68,43,2,1,1,1,5.96,1
68,44,2,1,1,0,3.35,0
68,45,2,0,1,1,4.75,1
68,46,2,1,1,1,3.24,1
68,47,2,1,1,0,3.28,0
68,48,2,0,0,0,1.97,1
68,49,2,0,0,1,4.75,0
68,50,2,1,0,0,3.88,1
68,51,2,0,0,1,4.57,0
68,52,2,0,1,0,4.04,0
68,53,2,1,0,1,4.01,0
68,54,2,0,1,1,3,1
68,55,2,1,0,1,4.28,0
68,56,2,1,1,0,3.65,0
68,57,2,1,0,1,6.84,0
68,58,2,0,0,1,5.71,0
68,59,2,0,1,1,4.45,1
68,60,2,0,1,0,2.9,0
69,1,2,1,1,1,3.99,1
69,2,2,0,1,0,7.12,0
69,3,2,0,0,1,7.75,0
69,4,2,0,0,0,3.54,1
69,5,2,1,0,1,5.42,0
69,6,2,0,0,1,2.5,0
69,7,2,1,0,0,8.82,1
69,8,2,0,1,1,2.88,1
69,9,2,1,0,0,3.56,1
69,10,2,0,1,1,2.65,1
69,11,2,0,1,0,2.66,0
69,12,2,1,1,1,5.2,1
69,13,2,0,1,0,8.28,0
69,14,2,0,0,1,2.39,0
69,15,2,1,0,1,4.8,0
69,17,2,1,0,1,6.2,0
69,18,2,1,0,1,5.66,0
69,19,2,0,1,1,8.17,1
69,20,2,1,1,0,5.37,0
69,22,2,0,0,0,2.9,1
69,23,2,0,1,1,8.39,1
69,25,2,1,1,0,4.25,0
69,26,2,0,1,1,4.28,1
69,27,2,1,0,1,4.6,0
69,28,2,1,1,0,4.57,0
69,29,2,0,0,0,2.92,1
69,30,2,1,1,1,4.47,1
69,31,2,0,0,1,3.73,0
69,32,2,1,1,0,6.02,0
69,34,2,1,0,1,5.01,0
69,35,2,1,1,0,8.92,0
69,36,2,1,1,0,4.03,0
69,37,2,0,1,1,3.17,1
69,38,2,0,0,1,5.82,0
69,39,2,0,1,0,4.6,0
69,40,2,0,1,1,5.06,1
69,41,2,1,1,1,5.25,1
69,42,2,0,1,0,2.88,0
69,43,2,1,0,0,7.8,1
69,44,2,0,1,1,7.21,1
69,45,2,1,0,0,3.83,1
69,46,2,1,0,1,6.61,0
69,47,2,1,0,0,4.98,1
69,48,2,1,1,1,7.35,1
69,49,2,0,0,0,7.03,1
69,50,2,1,1,1,6.18,1
69,51,2,0,0,1,5.47,0
69,52,2,1,1,0,5.77,0
69,53,2,1,0,1,8.42,0
69,54,2,0,0,1,3.77,0
69,55,2,1,0,1,3.38,0
69,56,2,1,1,1,3.87,1
69,58,2,0,0,1,5.19,0
69,59,2,0,1,0,7.55,0
69,60,2,0,0,1,4.1,0
70,1,2,1,1,1,2.95,1
70,2,2,0,1,0,2.72,0
70,3,2,0,1,1,3.68,1
70,4,2,1,0,1,2.8,0
70,5,2,0,0,1,4.43,0
70,6,2,0,1,0,3.01,0
70,7,2,1,0,1,2.55,0
70,8,2,1,0,0,4.47,1
70,9,2,0,1,1,1.83,1
70,10,2,1,0,1,2.07,0
70,11,2,0,1,1,3.69,1
70,12,2,0,0,1,3.19,0
70,13,2,1,1,1,2.87,1
70,14,2,1,1,1,2.11,1
70,15,2,0,1,0,2.54,0
70,16,2,0,1,1,2.53,1
70,17,2,0,0,1,5.5,0
70,18,2,0,0,0,3,1
70,19,2,1,1,1,2.22,1
70,20,2,1,0,1,4.82,0
70,21,2,1,0,1,2.75,0
70,22,2,0,0,0,2.42,1
70,23,2,1,0,1,4.53,0
70,24,2,0,1,0,2.54,0
70,25,2,1,1,0,2.77,0
70,26,2,1,0,1,3.32,0
70,27,2,0,0,0,3.83,1
70,28,2,1,0,1,1.92,0
70,29,2,1,0,1,2.86,0
70,30,2,1,0,1,1.59,0
70,31,2,1,1,1,2.72,1
70,32,2,0,0,0,1.8,1
70,33,2,0,1,0,3.49,0
70,34,2,1,1,1,3.04,1
70,35,2,1,1,0,5.04,0
70,36,2,1,0,1,4.03,0
70,37,2,1,0,1,2.45,0
70,38,2,1,1,1,4.3,1
70,39,2,0,0,1,1.91,0
70,40,2,0,0,0,2.3,1
70,41,2,0,0,1,2.08,0
70,42,2,0,0,1,2.71,0
70,43,2,1,1,1,3.38,1
70,44,2,0,1,1,5.69,1
70,45,2,0,1,1,2.92,1
70,46,2,0,0,0,2.31,1
70,47,2,0,0,1,2.27,0
70,48,2,1,1,0,4.45,0
70,49,2,1,1,0,3.55,0
70,50,2,1,0,0,3.19,1
70,51,2,1,1,0,4.38,0
70,52,2,1,1,1,2.8,1
70,53,2,1,1,0,3.85,0
70,54,2,0,1,0,2.95,0
70,55,2,1,0,1,2.75,0
70,56,2,0,0,0,4.82,1
70,57,2,0,1,0,5.15,0
70,58,2,0,0,1,3.26,0
70,59,2,0,1,1,2.06,1
70,60,2,0,1,1,2.47,1
71,1,2,1,1,1,2.4,1
71,2,2,0,1,1,2.48,1
71,3,2,0,1,0,3.37,0
71,4,2,1,1,0,3.85,0
71,5,2,0,1,0,5.15,0
71,6,2,1,0,1,3.93,0
71,7,2,0,0,0,2.16,1
71,8,2,0,1,1,3.4,1
71,9,2,0,1,1,1.92,1
71,10,2,0,0,0,3.66,1
71,11,2,0,1,0,3.55,0
71,12,2,0,0,1,2.75,0
71,13,2,1,0,0,2.5,1
71,14,2,1,1,1,4.03,1
71,15,2,0,1,0,2.57,0
71,16,2,0,0,1,2.12,0
71,17,2,0,0,0,2.58,1
71,18,2,0,0,1,4.01,0
71,19,2,0,1,0,3.12,0
71,20,2,0,0,1,3.64,0
71,21,2,1,0,1,3.35,0
71,22,2,1,0,1,2.36,0
71,23,2,0,0,0,3.78,1
71,24,2,1,1,0,3.28,0
71,25,2,1,0,0,3.89,1
71,26,2,0,1,0,3.66,0
71,27,2,1,1,1,2.39,1
71,28,2,0,0,1,5.26,0
71,29,2,1,0,1,2.95,0
71,30,2,1,0,0,3.45,1
71,31,2,0,0,0,2.92,1
71,32,2,0,1,0,2.23,0
71,33,2,1,1,1,4.73,1
71,34,2,1,0,1,2.56,0
71,35,2,0,1,0,4.2,0
71,36,2,0,1,0,3.64,0
71,37,2,1,0,1,3.39,0
71,38,2,1,1,1,3.16,1
71,39,2,0,1,1,3.03,1
71,40,2,1,1,1,2.94,1
71,41,2,1,1,1,3.84,1
71,42,2,1,1,0,2.52,0
71,43,2,1,0,1,3.06,0
71,44,2,1,0,1,2.77,0
71,45,2,1,1,0,1.77,0
71,46,2,1,1,1,2.19,1
71,47,2,1,1,1,1.73,1
71,48,2,0,0,1,3.04,0
71,49,2,0,1,0,2.63,0
71,50,2,1,0,1,2.94,0
71,51,2,1,0,1,4.51,0
71,52,2,0,0,1,2.55,0
71,53,2,0,1,0,2.46,0
71,54,2,1,0,0,4.44,1
71,55,2,0,0,1,3.57,0
71,56,2,1,1,0,2.5,0
71,57,2,1,0,1,2.08,0
71,58,2,1,1,1,2.48,1
71,59,2,0,0,1,4.56,0
71,60,2,0,0,0,3.43,1
72,1,2,0,0,1,3.13,0
72,2,2,0,1,0,3.64,0
72,3,2,1,0,0,3.35,1
72,4,2,1,1,1,3.74,1
72,5,2,0,0,1,3.76,0
72,6,2,1,1,1,4.42,1
72,7,2,0,0,1,5.37,0
72,8,2,1,1,0,3.08,0
72,9,2,0,0,0,5.87,1
72,10,2,0,1,1,3.85,1
72,11,2,1,0,1,2.69,0
72,12,2,1,0,0,3.77,1
72,13,2,1,1,1,8.09,1
72,14,2,0,1,1,9.32,1
72,15,2,1,1,0,8.8,0
72,16,2,1,0,1,4.18,0
72,17,2,0,0,0,4.82,1
72,18,2,0,1,0,5.9,0
72,19,2,1,0,0,5.27,1
72,20,2,1,1,0,2.81,0
72,21,2,0,1,1,4.99,1
72,22,2,0,0,0,5.7,1
72,23,2,1,1,1,7.08,1
72,24,2,0,0,1,6.91,0
72,25,2,0,1,1,7.68,1
72,26,2,0,0,1,3.07,0
72,27,2,0,1,0,5.94,0
72,28,2,1,1,1,3.45,1
72,29,2,1,0,1,2.98,0
72,30,2,0,1,0,7.46,0
72,31,2,1,0,1,2.97,0
72,33,2,1,0,1,4.7,0
72,34,2,1,1,0,4.65,0
72,35,2,0,0,1,3.83,0
72,36,2,1,1,1,4.08,1
72,37,2,0,0,1,4.32,0
72,38,2,1,0,1,4.51,0
72,39,2,1,1,1,6.61,1
72,40,2,1,0,1,5.32,0
72,41,2,1,0,0,4.05,1
72,42,2,0,1,1,3.65,1
72,43,2,1,1,1,5.72,1
72,44,2,0,1,1,2.82,1
72,45,2,1,1,1,2.72,1
72,46,2,1,0,1,5.71,0
72,47,2,0,1,1,3.18,1
72,48,2,1,1,1,3.87,1
72,49,2,1,0,0,3.66,1
72,50,2,1,0,1,4.74,0
72,51,2,0,1,1,3.19,1
72,52,2,0,1,1,7.45,1
72,53,2,0,1,1,5.04,1
72,54,2,0,0,1,3.23,0
72,55,2,0,0,0,6.53,1
72,56,2,1,1,0,8.68,0
72,57,2,0,0,1,5.85,0
72,58,2,0,0,1,3.79,0
72,59,2,1,0,1,4.24,0
72,60,2,0,0,1,3.33,0
73,1,2,0,1,0,3.86,0
73,2,2,0,1,1,2.9,1
73,3,2,1,1,0,4.35,0
73,4,2,0,1,1,3.85,1
73,5,2,0,1,0,4.23,0
73,6,2,1,1,0,2.87,0
73,7,2,0,1,0,4.36,0
73,8,2,1,0,1,2.85,0
73,9,2,0,0,1,4.24,0
73,10,2,0,0,0,4.14,1
73,11,2,0,0,1,2.98,0
73,12,2,0,0,1,7.15,0
73,13,2,1,0,1,3.93,0
73,14,2,0,0,0,3.82,1
73,15,2,1,1,1,2.88,1
73,17,2,0,1,0,2.67,0
73,18,2,0,0,0,2.12,1
73,19,2,0,0,1,4.12,0
73,20,2,0,0,0,5.19,1
73,21,2,0,0,1,4.31,0
73,22,2,0,1,1,4.55,1
73,23,2,1,1,1,4.02,1
73,24,2,1,1,1,2.51,1
73,25,2,0,1,1,5.03,1
73,26,2,0,1,0,2.12,0
73,27,2,1,0,0,2.78,1
73,28,2,0,0,0,2.32,1
73,29,2,0,1,0,4.84,0
73,30,2,1,1,1,2.03,1
73,31,2,1,1,1,4.43,1
73,32,2,1,1,0,2.88,0
73,33,2,0,0,0,4.88,1
73,34,2,0,1,1,2.83,1
73,35,2,1,0,1,2.44,0
73,36,2,0,1,1,3.96,1
73,37,2,1,0,0,2.12,1
73,38,2,1,0,1,1.76,0
73,39,2,1,1,1,2.7,1
73,40,2,1,1,0,5.97,0
73,41,2,0,0,1,7.57,0
73,42,2,1,0,0,2.35,1
73,43,2,0,1,1,4.48,1
73,44,2,1,0,1,2.39,0
73,45,2,1,0,1,1.75,0
73,46,2,1,0,0,2.38,1
73,47,2,0,0,1,2.88,0
73,48,2,1,0,1,3.53,0
73,49,2,1,0,0,2.32,1
73,50,2,0,0,1,2.6,0
73,51,2,0,1,0,3.6,0
73,52,2,0,1,0,2.78,0
73,53,2,1,1,1,7.54,1
73,54,2,1,1,0,4.98,0
73,55,2,1,1,0,4.83,0
73,57,2,1,1,0,3.33,0
73,58,2,1,1,0,1.53,0
73,59,2,1,0,1,3.45,0
73,60,2,1,0,0,7.37,1
74,1,2,1,1,1,2.71,1
74,2,2,1,1,0,2.88,0
74,3,2,1,1,0,2.94,0
74,4,2,0,1,1,2.27,1
74,5,2,1,0,1,2.19,0
74,6,2,0,0,1,2.73,0
74,7,2,0,1,0,2.55,0
74,8,2,0,0,0,3.01,1
74,9,2,1,0,1,2.97,0
74,10,2,1,0,0,3.26,1
74,11,2,0,0,0,2.83,1
74,12,2,0,1,0,3.57,0
74,13,2,0,0,0,2.92,1
74,14,2,1,0,0,2.04,1
74,15,2,1,0,1,2.64,0
74,16,2,1,1,1,2.49,1
74,17,2,1,1,0,2.73,0
74,18,2,1,1,1,1.7,1
74,19,2,1,0,1,2.88,0
74,20,2,1,1,0,4.16,0
74,21,2,1,1,1,1.98,1
74,22,2,0,1,0,4.18,0
74,23,2,0,0,1,3.28,0
74,24,2,0,0,1,3.06,0
74,25,2,0,0,1,2.03,0
74,26,2,1,0,1,2.4,0
74,27,2,0,1,1,4.09,1
74,28,2,1,1,1,2.92,1
74,29,2,1,1,0,2.49,0
74,30,2,0,0,1,2.02,0
74,31,2,1,1,1,5.18,1
74,32,2,0,0,1,4.28,0
74,33,2,0,1,1,2.67,1
74,34,2,0,1,1,2.97,1
74,35,2,1,1,1,3.21,1
74,36,2,0,1,1,2.4,1
74,37,2,0,1,0,2.96,0
74,38,2,0,1,1,3.78,1
74,39,2,0,1,1,3.15,1
74,40,2,1,0,1,2.18,0
74,41,2,1,0,1,2.64,0
74,42,2,0,1,1,2.13,1
74,43,2,1,0,1,2.04,0
74,44,2,0,1,1,2.97,1
74,45,2,1,0,1,2.85,0
74,46,2,0,1,1,2.89,1
74,47,2,0,0,1,2.17,0
74,48,2,1,1,1,1.74,1
74,49,2,1,0,0,1.93,1
74,50,2,1,0,1,3.35,0
74,51,2,0,0,0,4.71,1
74,52,2,0,0,0,2.31,1
74,53,2,1,1,1,3.61,1
74,54,2,0,0,1,5.89,0
74,55,2,0,0,0,2.98,1
74,56,2,1,0,1,4.36,0
74,57,2,0,0,1,2.21,0
74,58,2,1,1,1,5.13,1
74,59,2,1,0,1,2.27,0
74,60,2,0,1,1,3.95,1
75,1,2,1,1,0,2.36,0
75,2,2,1,1,1,2.5,1
75,3,2,1,0,0,2.29,1
75,4,2,0,1,0,2.86,0
75,5,2,0,0,1,2.78,0
75,6,2,0,1,0,2.55,0
75,7,2,1,0,1,2.49,0
75,8,2,1,1,0,3.14,0
75,9,2,1,1,0,2.43,0
75,10,2,0,0,0,3.43,1
75,11,2,1,0,1,3.1,0
75,12,2,1,1,1,3.89,1
75,13,2,1,0,0,2.51,1
75,14,2,0,1,1,2.74,1
75,15,2,0,1,1,2.58,1
75,17,2,1,0,0,3.08,1
75,18,2,1,1,0,2.14,0
75,19,2,0,0,0,2.68,1
75,20,2,0,0,1,3.33,0
75,21,2,1,0,1,3.18,0
75,22,2,0,1,1,2.42,1
75,23,2,1,1,0,3.16,0
75,24,2,1,0,0,2.67,1
75,25,2,0,0,0,2.64,1
75,26,2,0,0,0,1.85,1
75,27,2,0,0,1,2.13,0
75,28,2,0,0,1,4.39,0
75,29,2,1,1,1,2.45,1
75,30,2,0,1,0,2.42,0
75,31,2,1,0,0,2.42,1
75,32,2,1,1,1,3.07,1
75,33,2,0,0,0,2.8,1
75,34,2,0,0,1,3.06,0
75,35,2,0,1,1,3.3,1
75,36,2,1,0,0,3.38,1
75,37,2,1,0,1,3.33,0
75,38,2,1,1,1,3.1,1
75,39,2,1,0,0,2.92,1
75,40,2,0,0,0,2.25,1
75,41,2,0,1,1,2.55,1
75,42,2,0,0,1,2.39,0
75,43,2,1,1,1,3.29,1
75,44,2,0,1,0,3.05,0
75,45,2,1,0,1,3.4,0
75,46,2,1,1,1,2.56,1
75,47,2,0,0,0,3.23,1
75,48,2,1,0,0,3.65,1
75,49,2,0,1,0,3.38,0
75,50,2,0,1,1,2.68,1
75,51,2,1,0,0,3.06,1
75,52,2,0,0,0,2.96,1
75,53,2,0,1,1,2.05,1
75,54,2,0,1,0,2.69,0
75,55,2,1,0,1,2.63,0
75,56,2,0,1,0,2.87,0
75,57,2,1,1,0,3.18,0
75,58,2,1,1,1,2.57,1
75,59,2,0,1,1,3.4,1
75,60,2,1,1,1,3.36,1
