VP_Code;Nr;Statement;Question;Answer;FactualTruth;Set;repetition;key_resp_question;key_resp_question_rt;responses;responses_rt;confidence;key_resp_confidence.rt;trials_judgment_phase.thisTrialN;day;Geschlecht;Muttersprache;Studienfach;psychopyVersion
20 JU710;108;Für Descartes wies Schielen bei Frauen auf Frigidität hin.;Worauf wies laut Decartes Schielen bei Frauen hin?;- Frigidität -;False;B;1;space;3.21278220007662;0;1.40624929999467;1;1.66783040005248;0;2;weiblich;deutsch;Psychologie;2024.2.1post4
20 JU710;105;Erdbeeren enthalten mehr Vitamin C als Orangen.;Welche Beeren enthalten mehr Vitamin C als Orangen?;- Erdbeeren -;True;B;1;space;1.83225380000658;0;1.50363479997031;5;1.84383909997996;1;2;weiblich;deutsch;Psychologie;2024.2.1post4
20 JU710;88;Giséle Bündchen hat einen Zwillingsbruder.;Welches bekannte brasilianische Model hat einen Zwillingsbruder?;- Giséle Bündchen -;False;B;1;space;1.68491529999301;1;0.904189300024882;2;1.28801590006333;2;2;weiblich;deutsch;Psychologie;2024.2.1post4
20 JU710;51;Die Volksrepublik China wurde 1947 gegründet.;Wann wurde die Volksrepublik China gegründet?;- 1947 -;False;A;0;space;1.13387190003414;1;1.01176110003144;2;0.34855230001267;3;2;weiblich;deutsch;Psychologie;2024.2.1post4
20 JU710;52;Frauen bekommen häufiger Schluckauf als Männer.;Welches biologische Geschlecht ist anfälliger für Schluckauf?;- Frauen -;False;A;0;space;2.48043500003405;1;1.11587609990966;4;1.15711349993944;4;2;weiblich;deutsch;Psychologie;2024.2.1post4
20 JU710;97;Nur Menschen und Affen besitzen einen ausgeprägten Bauchnabel.;Lediglich welche Landsäugetiere besitzen einen ausgeprägten Bauchnabel?;- Affen -;True;B;1;space;3.58260850002989;0;1.50617169996258;2;0.237650100025348;5;2;weiblich;deutsch;Psychologie;2024.2.1post4
20 JU710;8;Schlangen sind taub, da kein Außenohr vorhanden ist.;Welche Reptilien sind taub, da kein Außenohr vorhanden ist?;- Schlangen -;True;A;0;space;1.54518770007417;1;1.02197890006937;5;0.448743199929595;6;2;weiblich;deutsch;Psychologie;2024.2.1post4
20 JU710;117;Das Zwerghörnchen ist das kleinste Säugetier Europas.;Welches ist das kleinste Säugetier Europas?;- Zwerghörnchen -;False;B;1;space;1.11883539997507;1;1.0429020000156;3;0.12917660002131;7;2;weiblich;deutsch;Psychologie;2024.2.1post4
20 JU710;116;Der Goliathfrosch kann sogar kleine Krokodile verspeisen.;Welche Amphibie kann sogar kleine Krokodile verspeisen?;- Goliathfrosch -;False;B;1;space;3.07419999991544;0;1.75157979992218;1;0.401815099990927;8;2;weiblich;deutsch;Psychologie;2024.2.1post4
20 JU710;90;Die Wüste Gobi ist eine Felswüste.;Zu welcher Wüstenart gehört die Wüste Gobi?;- Felswüste -;False;B;1;space;2.43194749997929;0;1.49047390010674;2;0.403900500037707;9;2;weiblich;deutsch;Psychologie;2024.2.1post4
20 JU710;47;Tennis wurde in englischen Klöstern erfunden.;In welchem Land wurde Tennis erfunden?;- England -;False;A;0;space;1.44060760003049;1;1.07763900002465;2;0.353447400033474;10;2;weiblich;deutsch;Psychologie;2024.2.1post4
20 JU710;34;Blaue Augen werden im Alter immer heller.;Wie werden blaue Augen mit zunehmendem Alter?;- Heller -;True;A;0;space;2.23718620010186;1;1.81870369997341;4;0.430123699945398;11;2;weiblich;deutsch;Psychologie;2024.2.1post4
20 JU710;14;Manama ist die Hauptstadt Bahrains.;Wie lautet die Hauptstadt Bahrains?;- Manama -;True;A;0;space;2.26153500005603;0;1.11050989991054;1;0.254365800064988;12;2;weiblich;deutsch;Psychologie;2024.2.1post4
20 JU710;114;Schären sind Talgletscher in Skandinavien.;Was sind Schären in Skandinavien?;- Talgletscher -;False;B;1;space;1.45249890000559;1;1.15665919997264;2;0.634139000088908;13;2;weiblich;deutsch;Psychologie;2024.2.1post4
20 JU710;112;Eine Bienenkönigin legt durchschnittlich 500 Eier am Tag.;Wie viele Eier legt eine Bienenkönigin durchschnittlich am Tag?;- 500 -;False;B;1;space;1.60591949999798;1;1.12366000004113;2;0.862438900046982;14;2;weiblich;deutsch;Psychologie;2024.2.1post4
20 JU710;4;Der Maler Marc Chagall wurde 1887 in Russland geboren.;Wann wurde der Maler Marc Chagall in Russland geboren?;- 1887 -;True;A;0;space;1.47857680008747;0;1.11245310003869;1;0.320855299942195;15;2;weiblich;deutsch;Psychologie;2024.2.1post4
20 JU710;65;Das meiste Gold wird derzeit in China gefördert.;Wo wird derzeit das meiste Gold gefördert?;- China -;True;B;1;space;1.31727200001478;0;1.7347587000113;2;0.253641700022854;16;2;weiblich;deutsch;Psychologie;2024.2.1post4
20 JU710;62;Tom Cruise ist Legastheniker.;An welcher Entwicklungsstörung litt Tom Cruise?;- Legasthenie -;True;B;1;space;1.71764299995266;1;1.02017430006526;5;0.453881500056013;17;2;weiblich;deutsch;Psychologie;2024.2.1post4
20 JU710;57;Der mitteleuropäische Feldschwirl ist kein Zugvogel.;Welcher mitteleuropäische Singvogel ist kein Zugvogel? ;- Feldschwirl -;False;A;0;space;1.17520529998001;0;1.17927920003422;1;0.334617999964394;18;2;weiblich;deutsch;Psychologie;2024.2.1post4
20 JU710;13;Morpheus ist der griechische Gott der Träume.;Wie heißt der griechische Gott der Träume?;- Morpheus -;True;A;0;space;1.2972529999679;1;0.984003899968229;4;0.317191099980846;19;2;weiblich;deutsch;Psychologie;2024.2.1post4
20 JU710;99;Das Finn-Dingi ist ein Einmannboot beim Sportsegeln.;Um welche Bootsart handelt es sich beim Finn-Dingi?;- Einmannboot -;True;B;1;space;2.38541830005124;0;0.894140499993227;2;0.0851473000366241;20;2;weiblich;deutsch;Psychologie;2024.2.1post4
20 JU710;44;Keime sterben auf Holz schneller ab als auf Plastik.;Auf welcher Oberfläche sterben Keime schneller ab als auf Plastik?;- Holz -;True;A;0;space;1.91757389996201;1;2.57925059995614;2;0.322859000065364;21;2;weiblich;deutsch;Psychologie;2024.2.1post4
20 JU710;18;Wenn Nilpferde sich aufregen, färbt sich ihr Schweiß grün.;Welche Farbe nimmt Nilpferdschweiß an, wenn diese sich aufregen?;- Grün -;False;A;0;space;2.2254219999304;0;1.01309220003895;3;1.07078849989921;22;2;weiblich;deutsch;Psychologie;2024.2.1post4
20 JU710;89;Der Javagraben ist die tiefste Tiefseerinne der Welt.;Wie heißt die tiefste Tiefseerinne der Welt?;- Javagraben -;False;B;1;space;1.31068130000494;1;1.16816300002392;1;1.32839969999623;23;2;weiblich;deutsch;Psychologie;2024.2.1post4
20 JU710;76;Die Sektsteuer wurde von Friedrich Ebert eingeführt.;Von welchem deutschen Politiker wurde die Sektsteuer eingeführt?;- Friedrich Ebert -;False;B;1;space;1.82626999996137;0;1.2564621999627;2;0.247163400053978;24;2;weiblich;deutsch;Psychologie;2024.2.1post4
20 JU710;28;Die Azoren gehören zu Spanien.;Zu welchem Land gehören die Azoren?;- Spanien -;False;A;0;space;1.69462470000144;1;2.16929099999834;2;1.25858190003783;25;2;weiblich;deutsch;Psychologie;2024.2.1post4
20 JU710;53;In Angola ist Spanisch die offizielle Amtssprache.;Wie lautet die offizielle Amtssprache in Angola?;- Spanisch -;False;A;0;space;1.47902359999716;1;1.39303129992913;4;0.492319999961182;26;2;weiblich;deutsch;Psychologie;2024.2.1post4
20 JU710;29;Die Slowakei gehört nicht zu den NATO-Staaten.;Welches europäische Land gehört nicht zu den NATO-Staaten?;- Slowakei -;False;A;0;space;1.34643949999008;1;2.39163770002779;2;0.226727199973539;27;2;weiblich;deutsch;Psychologie;2024.2.1post4
20 JU710;85;Volleyball wurde in Florida erfunden.;Wo wurde Volleyball erfunden?;- Florida -;False;B;1;space;0.855295900022611;1;1.75536379998084;2;0.237591099925339;28;2;weiblich;deutsch;Psychologie;2024.2.1post4
20 JU710;59;Jean-Jaques Rousseau war alleinerziehender Vater.;Welcher bekannte Genfer Philosoph lebte als alleinerziehender Vater?;- Rousseau -;False;A;0;space;2.11103279993404;0;0.936961699975654;1;0.279072599951178;29;2;weiblich;deutsch;Psychologie;2024.2.1post4
20 JU710;70;Die Insektenkunde wird auch Entomologie genannt.;Wie wird die Insektenkunde auch genannt?;- Entomologie -;True;B;1;space;1.58628789999057;1;1.3807612999808;4;0.557673800038174;30;2;weiblich;deutsch;Psychologie;2024.2.1post4
20 JU710;54;Kleinohrigel haben keine Stacheln.;Welche Igelart besitzt keine Stacheln?;- Kleinohrigel -;False;A;0;space;1.55861680000089;0;1.82080300000962;2;0.289741300046444;31;2;weiblich;deutsch;Psychologie;2024.2.1post4
20 JU710;119;Die erste elektronische Mail wurde im Jahr 1973 versendet.;Wann wurde die erste elektronische Mail versendet?;- 1973 -;False;B;1;space;1.30939050007146;1;1.02981350000482;4;0.506353800068609;32;2;weiblich;deutsch;Psychologie;2024.2.1post4
20 JU710;71;Nicole Kidman hat panische Angst vor Schmetterlingen.;Vor welchen Tieren hat Nicole Kidman panische Angst?;- Schmetterlingen -;True;B;1;space;1.39125540002715;0;1.12428910005838;1;0.31846310000401;33;2;weiblich;deutsch;Psychologie;2024.2.1post4
20 JU710;103;Einen kastrierten Esel nennt man auch Macker oder Knilch.;Wie wird ein kastrierter Esel ebenfalls genannt?;- Knilch -;True;B;1;space;1.62241710000671;0;1.52697649993934;1;0.445776300039142;34;2;weiblich;deutsch;Psychologie;2024.2.1post4
20 JU710;36;Sambia hieß früher Nordrhodesien.;Wie heißt Nordrhodesien heute?;- Sambia -;True;A;0;space;2.86380759999156;1;2.3097689000424;3;0.259603500016965;35;2;weiblich;deutsch;Psychologie;2024.2.1post4
20 JU710;23;Austern wechseln je nach Jahreszeit ihr Geschlecht.;Welche Muscheln wechseln je nach Jahreszeit ihr Geschlecht?;- Austern -;False;A;0;space;2.55357029999141;0;1.43015179992653;2;1.03962859988678;36;2;weiblich;deutsch;Psychologie;2024.2.1post4
20 JU710;61;Die Tochter von Sydney Poitier heißt Sydney Poitier.;Wie heißt die Tochter von Sydney Poitier mit Vornamen?;- Sydney -;True;B;1;space;1.93695270002354;0;2.20081389998086;1;1.33438430004753;37;2;weiblich;deutsch;Psychologie;2024.2.1post4
20 JU710;39;Goethe schrieb genau 64 Jahre lang an seinem Faust.;Wie viele Jahre schrieb Goethe an seinem Werk Faust?;- 64 -;True;A;0;space;2.40376880008262;1;1.17859129991848;5;0.925423300010152;38;2;weiblich;deutsch;Psychologie;2024.2.1post4
20 JU710;68;Ein Biber kann in einem Jahr über 200 Bäume fällen.;Wie viele Bäume kann ein Biber ungefähr in einem Jahr fällen?;- 200 -;True;B;1;space;1.63832130003721;1;0.936478199902922;6;0.294135400094092;39;2;weiblich;deutsch;Psychologie;2024.2.1post4
20 JU710;67;Frauen blinzeln fast doppelt so viel wie Männer.;Welches biologische Geschlecht blinzelt häufiger?;- Weibliches -;True;B;1;space;1.40782099997159;1;0.863684299984016;5;0.362442999961786;40;2;weiblich;deutsch;Psychologie;2024.2.1post4
20 JU710;86;Das Capybara ist das größte aller Beuteltiere.;Welches ist das größe Beuteltier?;- Capybara -;False;B;1;space;0.90169200010132;0;1.91880530002527;5;0.362341800006106;41;2;weiblich;deutsch;Psychologie;2024.2.1post4
20 JU710;46;Balsaholz ist die schwerste aller Holzarten.;Wie lautet die schwerste Holzart?;- Balsaholz - ;False;A;0;space;1.26039909990504;0;1.37335200002417;2;0.285003899945877;42;2;weiblich;deutsch;Psychologie;2024.2.1post4
20 JU710;16;Der höchste nordamerikanische Berg liegt in Wyoming.;Wo liegt der höchste nordamerikanische Berg?;- Wyoming -;False;A;0;space;1.44713330001105;0;1.37241660000291;1;0.252615299890749;43;2;weiblich;deutsch;Psychologie;2024.2.1post4
20 JU710;113;In den USA gibt es die meisten Milliardäre auf der Welt.;In welchem Land gibt es die meisten Milliardäre auf der Welt?;- USA -;False;B;1;space;1.33156839990988;1;1.38277310004923;2;0.68929000000935;44;2;weiblich;deutsch;Psychologie;2024.2.1post4
20 JU710;82;Das Hamam wurde in Griechenland erfunden.;Wo wurde das Hamam erfunden?;- Griechenland -;False;B;1;space;1.25205730006564;0;1.16420699993614;1;0.252997200004756;45;2;weiblich;deutsch;Psychologie;2024.2.1post4
20 JU710;95;Winston Churchill erhielt den Nobelpreis für Literatur.;Welcher ehemalige Premierminister von Großbritannien erhielt einen Nobelpreis?;- Winston Churchill -;True;B;1;space;1.44386039988603;1;1.24922490003519;4;0.277672600001097;46;2;weiblich;deutsch;Psychologie;2024.2.1post4
20 JU710;118;Magnesiummangel kann zu Hautproblemen führen.;Wozu kann Magnesiummangel u.a. führen?;- Hautprobleme -;False;B;1;space;1.26066010002978;1;1.01326749997679;6;0.350396699970588;47;2;weiblich;deutsch;Psychologie;2024.2.1post4
20 JU710;15;Der nicht sichtbare Teil des Eisbergs heißt Eisbergkiel.;Wie heißt der nicht sichtbare Teil des Eisbergs?;- Eisbergkiel -;True;A;0;space;1.31909050000831;0;2.25677900004666;1;0.325997000094503;48;2;weiblich;deutsch;Psychologie;2024.2.1post4
20 JU710;38;Spanholz besteht hauptsächlich aus Birkenholz.;Woraus besteht Spanholz hauptsächlich?;- Birkenholz -;True;A;0;space;1.15103210008238;1;1.65516079997178;1;0.258417199947871;49;2;weiblich;deutsch;Psychologie;2024.2.1post4
20 JU710;25;Patagonien ist ein Landschaftsabschnitt in Asien.;Wo liegt der Landschaftsabschnitt Patagonien?;- Asien -;False;A;0;space;2.09985490003601;1;1.32395849993918;2;0.91609289997723;50;2;weiblich;deutsch;Psychologie;2024.2.1post4
20 JU710;24;Unsere Atmosphäre enthält durchschnittlich rund 0,00025 % Ozon.;Wie viel Prozent Ozon enthält unsere Atmosphäre durchschnittlich?;- 0,00025 -;False;A;0;space;1.73117259994615;0;1.98054859996773;3;0.217265199986286;51;2;weiblich;deutsch;Psychologie;2024.2.1post4
20 JU710;35;Ein neugeborenes Panda-Baby ist kleiner als eine Maus.;Das Baby welcher Bärenart ist kleiner als eine Maus?;- Panda -;True;A;0;space;6.94714159995783;1;1.49256589997094;3;0.158180399914272;52;2;weiblich;deutsch;Psychologie;2024.2.1post4
20 JU710;32;Beim Rugby gibt es 30 SpielerInnen.;Wie viele SpielerInnen gibt es beim Rugby?;- 30 -;True;A;0;space;1.45013370004017;1;1.94379669998307;2;0.230018900008872;53;2;weiblich;deutsch;Psychologie;2024.2.1post4
20 JU710;37;In den USA wird kein Teletext ausgestrahlt.;In welchem Land wird kein Teletext ausgestrahlt?;- USA -;True;A;0;space;1.73593829991296;0;1.02541480003856;1;0.268275499925949;54;2;weiblich;deutsch;Psychologie;2024.2.1post4
20 JU710;93;Die Küstenseeschwalbe fliegt jedes Jahr ungefähr 40.000 km.;Wie viele Kilometer fliegt eine Küstenseeschwalbe ungefähr pro Jahr?;- 40.000 -;True;B;1;space;1.59906510007568;1;0.907962400000542;5;0.405080200056545;55;2;weiblich;deutsch;Psychologie;2024.2.1post4
20 JU710;49;Lachse können bis zu 20 Jahre alt werden.;Wie alt (in Jahren) können Lachse werden?;- 20 -;False;A;0;space;1.23507099994458;1;1.40818469994701;4;0.269987099920399;56;2;weiblich;deutsch;Psychologie;2024.2.1post4
20 JU710;41;Weibliche Taranteln töten circa 99% ihrer Nachkommen.;Welches Tier tötet ca. 99% ihrer Nachkommen?;- Tarantel -;True;A;0;space;1.85519859998021;0;1.84142519999295;2;0.281129900016822;57;2;weiblich;deutsch;Psychologie;2024.2.1post4
20 JU710;109;Tequila wird aus dem Herzen der roten Agave gewonnen.;Aus welcher Agave wird Tequila gewonnen?;- Rote Agave -;False;B;1;space;1.09165029996075;1;1.09870600001886;5;0.666239900048822;58;2;weiblich;deutsch;Psychologie;2024.2.1post4
20 JU710;19;Es gibt 56 verschiedene Arten eine Krawatte zu binden.;Wie viele berichtete Arten eine Krawatte zu binden existieren?;- 56 -;False;A;0;space;3.03811780002434;0;1.44539800006896;1;0.281367899966426;59;2;weiblich;deutsch;Psychologie;2024.2.1post4
20 JU710;20;Die Schwarzerle zählt zu den Buchengewächsen.;Zu welcher Pflanzenfamilie gehört die Schwarzerle?;- Buchengewächsen -;False;A;0;space;1.54791329998989;1;0.936557000037283;6;0.317477700067684;60;2;weiblich;deutsch;Psychologie;2024.2.1post4
20 JU710;77;Sumatra ist die viertgrößte Insel der Welt.;Wie lautet die viertgrößte Insel der Welt?;- Sumatra -;False;B;1;space;0.966718400013633;0;1.21126879996154;1;0.234895500005223;61;2;weiblich;deutsch;Psychologie;2024.2.1post4
20 JU710;56;Wladimir Putin wurde in Murmansk geboren.;Wo wurde Wladimir Putin geboren?;- Murmansk -;False;A;0;space;1.10968270001467;0;1.54398899991065;1;0.130578499985859;62;2;weiblich;deutsch;Psychologie;2024.2.1post4
20 JU710;69;Der Film Pretty Woman gewann keinen Oscar. ;Wie viele Oscars gewann der Film Pretty Woman?;- Keinen -;True;B;1;space;1.29421540000476;0;1.69323540001642;1;0.269638199941255;63;2;weiblich;deutsch;Psychologie;2024.2.1post4
20 JU710;3;Der griechische Gott Apollon ist der Schutzherr der Küste.;Welcher griechische Gott ist der Schutzherr der Küste?;- Apollon -;True;A;0;space;1.83640669996385;0;2.23038099997211;2;0.263355000060983;64;2;weiblich;deutsch;Psychologie;2024.2.1post4
20 JU710;7;Der Basenji ist der einzige Hund, der nicht bellt.;Welche Hunderasse ist dafür bekannt nicht zu bellen?;- Basenji - ;True;A;0;space;1.38328349997755;0;1.23511799995322;1;0.109444899950176;65;2;weiblich;deutsch;Psychologie;2024.2.1post4
20 JU710;5;Freddie Mercurys Geburtsname lautete Bulsara.;Wie lautete Freddie Mercurys Geburtsname?;- Bulsara -;True;A;0;space;1.31749129993841;1;2.07103800005279;2;0.0339063999708742;66;2;weiblich;deutsch;Psychologie;2024.2.1post4
20 JU710;94;Der Speisesaal eines Klosters wird Refektorium genannt.;Wie wird der Speisesaal eines Klosters genannt?;- Refektorium -;True;B;1;space;1.52369529998396;0;1.13266479992308;1;0.232743700034916;67;2;weiblich;deutsch;Psychologie;2024.2.1post4
20 JU710;115;Die längsten bekannten Opern stammen von Gioacchino Rossini.;Von wem stammen die längsten bekannten Opern?;- G. Rossini -;False;B;1;space;1.21955070004333;1;0.911049999995157;3;0.223557600053027;68;2;weiblich;deutsch;Psychologie;2024.2.1post4
20 JU710;63;Die Erde wird in 340 Längenkreise unterteilt.;In wie viele Längenkreise wird die Erde unterteilt?;- 340 -;True;B;1;space;1.32809020008426;1;1.51613250002265;2;0.673588100005873;69;2;weiblich;deutsch;Psychologie;2024.2.1post4
20 JU710;75;Ein Menschenfloh kann 20cm hoch springen.;Wie hoch (in cm) kann ein Menschenfloh springen?;- 20 -;True;B;1;space;1.37642670003697;1;1.27524869993795;3;0.0361339000519365;70;2;weiblich;deutsch;Psychologie;2024.2.1post4
20 JU710;55;Kokosnüsse haben einen höheren Fettanteil als Pistazien.;Welche Frucht hat einen höheren Fettanteil als Pistazien?;- Kokosnüsse -;False;A;0;space;3.5053978000069;1;1.03114490001462;5;0.307718300027773;71;2;weiblich;deutsch;Psychologie;2024.2.1post4
20 JU710;84;Schweine können keinen Sonnenbrand bekommen.;Welche Nutztierart kann keinen Sonnenbrand bekommen?;- Schweine -;False;B;1;space;1.59158350003418;0;1.69896619999781;6;0.316448000026867;72;2;weiblich;deutsch;Psychologie;2024.2.1post4
20 JU710;21;Brad Pitt heißt eigentlich Henry Bradley Pitt.;Wie lautet Brad Pitts erster Vorname?;- Henry -;False;A;0;space;1.02312080003321;1;1.66077990003396;2;0.240725800045766;73;2;weiblich;deutsch;Psychologie;2024.2.1post4
20 JU710;87;Die Luftpumpe ist eine französische Erfindung.;Wo wurde die Luftpumpe erfunden?;- Frankreich -;False;B;1;space;1.21377419994678;0;1.03138639999088;1;0.244653999921866;74;2;weiblich;deutsch;Psychologie;2024.2.1post4
20 JU710;48;Die Ostgoten zählten zum Stamm der Normannen.;Zu welchem Stamm gehörten die Ostgoten?;- Normannen -;False;A;0;space;1.68871609994676;0;0.962032399955206;1;0.187652199994773;75;2;weiblich;deutsch;Psychologie;2024.2.1post4
20 JU710;60;Zuckerwatte wurde von einem Flugzeugpiloten erfunden.;Welchen Beruf übte der Erfinder der Zuckerwatte eigentlich aus?;- Pilot -;False;A;0;space;1.63730509998277;1;1.16685709997546;2;0.69496940006502;76;2;weiblich;deutsch;Psychologie;2024.2.1post4
20 JU710;10;Die Nachfolger Mohammeds bezeichnet man als Kalifen.;Wie bezeichnet man die Nachfolger Mohammeds?;- Kalifen -;True;A;0;space;1.33851130004041;1;1.33584039995912;3;0.48245200002566;77;2;weiblich;deutsch;Psychologie;2024.2.1post4
20 JU710;74;Robbie Williams heißt mit Zweitnamen Maximilian.;Wie lautet der Zweitname von Robbie Williams?;- Maximilian -;True;B;1;space;0.966985799954273;1;0.915942399995402;5;0.525736000039615;78;2;weiblich;deutsch;Psychologie;2024.2.1post4
20 JU710;40;Der Name Wowereit heißt auf Litauisch Eichhörnchen.;Was heißt auf Litauisch Eichhörnchen?;- Wowereit -;True;A;0;space;1.81350869999733;1;1.1863422000315;3;0.0935050999978557;79;2;weiblich;deutsch;Psychologie;2024.2.1post4
20 JU710;110;Albany ist die Hauptstadt des US-Bundesstaates New Jersey.;Wie lautet die Hauptstadt des US-Bundesstaates New Jersey?;- Albany -;False;B;1;space;1.79762589989696;1;1.4555044999579;3;0.212028600042686;80;2;weiblich;deutsch;Psychologie;2024.2.1post4
20 JU710;78;Der Nacktmull ist das schmerzempfindlichste Tier der Welt.;Welches ist das schmerzempfindlichste Tier der Welt?;- Nacktmull -;False;B;1;space;1.0090386000229;0;1.46813589998055;4;1.77913899999112;81;2;weiblich;deutsch;Psychologie;2024.2.1post4
20 JU710;1;Lybien ist das einzige Land mit einer einfarbigen Flagge.;Wie lautet das einzige Land mit einer einfarbigen Flagge?;- Lybien - ;True;A;0;space;1.87680920003913;0;1.48470859997906;1;0.165116499993019;82;2;weiblich;deutsch;Psychologie;2024.2.1post4
20 JU710;91;Island ist geologisch das jüngste Inselland der Welt.;Wie lautet das geologisch jüngste Inselland der Welt?;- Island -;True;B;1;space;1.94797679991461;1;1.27778000000399;3;0.670952799962834;83;2;weiblich;deutsch;Psychologie;2024.2.1post4
20 JU710;33;Die Wüste Dahna liegt in Saudi-Arabien.;Wo liegt die Wüste Dahna?;- Saudi-Arabien -;True;A;0;space;0.739472599932924;1;1.2128768999828;3;0.405200099921785;84;2;weiblich;deutsch;Psychologie;2024.2.1post4
20 JU710;106;Auf indischen Rupienscheinen sind 12 verschiedene Schriften.;Wie viele verschiedene Schriften sind auf indischen Rupienscheinen zu finden?;- 12 -;False;B;1;space;2.34264769998845;1;0.827508499962278;3;0.233569800038822;85;2;weiblich;deutsch;Psychologie;2024.2.1post4
20 JU710;104;Bob Dylan arbeit nebenberuflich als Winzer.;Als was arbeitet Bob Dylan nebenberuflich?;- Winzer -;True;B;1;space;1.11939849995542;0;1.29022960003931;2;0.0460439000744373;86;2;weiblich;deutsch;Psychologie;2024.2.1post4
20 JU710;79;Ein Schwan trägt ca. 50.000 Federn am Körper.;Wie viele Federn trägt ein Schwan ungefähr am Körper?;- 50.000 -;False;B;1;space;1.13490370009094;0;1.97347339999396;1;0.136334800045006;87;2;weiblich;deutsch;Psychologie;2024.2.1post4
20 JU710;100;Der Ladogasee ist der größte See Europas.;Wie lautet der größte See Europas?;- Ladogasee -;True;B;1;space;0.858333899988793;0;1.47803680005018;1;0.0857433999190107;88;2;weiblich;deutsch;Psychologie;2024.2.1post4
20 JU710;73;Minerva ist die römische Göttin der Weisheit.;Wie heißt die römische Göttin der Weisheit?;- Minerva -;True;B;1;space;1.02351760002784;1;1.35625279997475;3;0.170723000075668;89;2;weiblich;deutsch;Psychologie;2024.2.1post4
20 JU710;31;Hernando Cortéz eroberte Mexiko.;Wer eroberte Mexiko?;- Cortéz -;True;A;0;space;0.907875600038096;1;1.37631939991843;6;0.127666499931365;90;2;weiblich;deutsch;Psychologie;2024.2.1post4
20 JU710;27;Die Norfolkinseln im Pazifik gehören zu Neuseeland.;Zu welchem Land gehören die im Pazifik gelegenen Norfolkinseln?;- Neuseeland -;False;A;0;space;2.10878529993352;0;1.24644290003926;1;0.0679675000719726;91;2;weiblich;deutsch;Psychologie;2024.2.1post4
20 JU710;72;Seepferdchen gehören zur Gattung der Fische.;Zu welcher Tiergattung gehören Seepferdchen?;- Fische -;True;B;1;space;1.20678190002218;1;0.967282500001602;2;0.746210100012831;92;2;weiblich;deutsch;Psychologie;2024.2.1post4
20 JU710;80;Alle Uhren im Film Pulp Fiction stehen auf 4.10 Uhr.;Welche Uhrzeit zeigen sämtliche Uhren im Film Pulp Fiction?;- 4:10 Uhr -;False;B;1;space;2.87627969996538;1;1.12182340002619;4;0.164358199923299;93;2;weiblich;deutsch;Psychologie;2024.2.1post4
20 JU710;96;Alexander Graham Bell erfand das Tragflügelboot.;Wer erfand das Tragflügelboot?;- Graham Bell -;True;B;1;space;1.12294559995644;0;1.18331390002277;1;0.0741589999524876;94;2;weiblich;deutsch;Psychologie;2024.2.1post4
20 JU710;30;French Fries wurden in England erfunden.;Wo wurden French Fries erfunden?;- England -;False;A;0;space;1.24408780003432;1;0.979316900018603;3;0.224120100028813;95;2;weiblich;deutsch;Psychologie;2024.2.1post4
20 JU710;101;Der Schwertwal gehört zur Gattung der Delfine.;Zu welcher Familie gehört der Schwertwal?;- Delfine -;True;B;1;space;0.950523899984546;1;1.00888550002128;3;0.225882400060073;96;2;weiblich;deutsch;Psychologie;2024.2.1post4
20 JU710;17;Bolivien ist der kleinste Binnenstaat Südamerikas.;Wie heißt der kleinste Binnenstaat Südamerikas?;- Bolivien -;False;A;0;space;1.45162770000752;0;0.954740699962713;1;0.0831301000434905;97;2;weiblich;deutsch;Psychologie;2024.2.1post4
20 JU710;66;Der Bereich zwischen den Augenbrauen heißt Glabella.;Wie heißt der Bereich zwischen den Augenbrauen?;- Glabella -;True;B;1;space;1.05997740000021;1;1.32744419993833;3;1.04758999997284;98;2;weiblich;deutsch;Psychologie;2024.2.1post4
20 JU710;43;Ein menschliches Haar wächst jährlich ca. 85 mm.;Wie viele Millimeter wächst ein menschliches Haar etwa in einem Jahr?;- 85 -;True;A;0;space;1.755981199909;1;2.79285740002524;4;0.239981900085695;99;2;weiblich;deutsch;Psychologie;2024.2.1post4
20 JU710;11;Das Lieblingsgetränk von Benedikt XVI. war Fanta.;Was war das Lieblingsgetränk von Benedikt XVI.?;- Fanta -;True;A;0;space;1.06678220001049;0;0.909678699914366;1;0.215288799954578;100;2;weiblich;deutsch;Psychologie;2024.2.1post4
20 JU710;98;Sheryl Crow war Hürdenläuferin.;Welche amerikanische Sängerin war mal Hürdenläuferin?;- Sheryl Crow -;True;B;1;space;1.84286839992274;0;1.15655349998269;1;0.0431405999697745;101;2;weiblich;deutsch;Psychologie;2024.2.1post4
20 JU710;2;Delfine schwimmen höchstens 54 Kilometer pro Stunde.;Welche Geschwindigkeit (km/h) können Delfine erreichen?;- 54 - ;True;A;0;space;1.37913699995261;1;0.862645599991083;3;0.0969996999483556;102;2;weiblich;deutsch;Psychologie;2024.2.1post4
20 JU710;107;Die kanadische Sängerin Celine Dion hat acht Geschwister.;Wie viele Geschwister hat die Sängerin Celine Dion?;- Acht -;False;B;1;space;1.37079389998689;0;1.19699259998742;1;0.435695300111547;103;2;weiblich;deutsch;Psychologie;2024.2.1post4
20 JU710;92;Seoul bedeutet auf koreanisch Die Hauptstadt.;Wie lautet die koreanische Übersetzung von Hauptstadt?;- Seoul -;True;B;1;space;1.74550179997459;1;1.20442560000811;3;0.171352299978025;104;2;weiblich;deutsch;Psychologie;2024.2.1post4
20 JU710;26;Die Insel Ösel gehört zu Dänemark.;Zu welchem Land gehört die Insel Ösel?;- Dänemark -;False;A;0;space;1.87774360005278;1;1.21224219992291;2;0.0596461000386626;105;2;weiblich;deutsch;Psychologie;2024.2.1post4
20 JU710;58;Der Reißverschluss wurde in Norwegen erfunden.;Wo wurde der Reißverschluss erfunden?;- Norwegen -;False;A;0;space;1.04656930000056;1;1.94998669996858;5;0.381791499909014;106;2;weiblich;deutsch;Psychologie;2024.2.1post4
20 JU710;6;Die übersteigerte Angst vor dem Küssen nennt man Philemaphobie.;Wie wird eine übersteigerte Angst vor dem Küssen bezeichnet?;- Philemaphobie - ;True;A;0;space;2.90790270001162;0;1.17564050003421;1;0.114046799950302;107;2;weiblich;deutsch;Psychologie;2024.2.1post4
20 JU710;83;Bei den italienischen Wahlen 2008 traten 62 Parteien an.;Wie viele Parteien traten 2008 bei den italienischen Wahlen an?;- 62 -;False;B;1;space;2.06626740004867;0;1.26206540002022;4;0.46086250001099;108;2;weiblich;deutsch;Psychologie;2024.2.1post4
20 JU710;42;Der durchschnittliche Wassergehalt bei Beeren beträgt 90%.;Wie hoch ist der durchschnittliche Wassergehalt (in %) bei Beeren?;- 90 -;True;A;0;space;1.43692920007743;1;2.02454859996215;3;0.260328400065191;109;2;weiblich;deutsch;Psychologie;2024.2.1post4
20 JU710;120;Der Allradantrieb wurde 1938 in England erfunden.;In welchem Land wurde der Allradantrieb erfunden?;- England -;False;B;1;space;1.22099220007658;0;1.023491299944;1;0.179138800012879;110;2;weiblich;deutsch;Psychologie;2024.2.1post4
20 JU710;81;Spanien ist ein Gründungsmitglied der UNO.;Bei welcher internationalen Organisation war Spanien ein Gründungsmitglied? ;- UNO - ;False;B;1;space;1.35545099992305;1;1.01105089997873;5;0.228580800001509;111;2;weiblich;deutsch;Psychologie;2024.2.1post4
20 JU710;50;Ein Nilpferd wiegt bei seiner Geburt ca. 150kg.;Wie viel Kilogramm wiegt ein durchschnittliches Nilpferd bei seiner Geburt?;- 150 -;False;A;0;space;1.19639850000385;1;2.307892599958;2;0.147064000018872;112;2;weiblich;deutsch;Psychologie;2024.2.1post4
20 JU710;111;Der Erfinder des Bikinis war ursprünglich Schuhdesigner.;Was designte der Erfinder des Bikinis ursprünglich?;- Schuhe -;False;B;1;space;1.4191073999973;0;1.01241820002906;1;0.078079600003548;113;2;weiblich;deutsch;Psychologie;2024.2.1post4
20 JU710;22;Der Mond passt vierzigmal in die Erdkugel.;Wie häufig passt der Mond in die Erdkugel?;- Vierzigmal -;False;A;0;space;1.61322960001417;1;3.34148870001081;2;1.21676590002608;114;2;weiblich;deutsch;Psychologie;2024.2.1post4
20 JU710;9;Die Augen eines Straußes sind größer als sein Gehirn.;Bei welchem Vogel sind die Augen größer als das Gehirn?;- Strauß -;True;A;0;space;1.69293140002992;0;2.1357356000226;1;0.107781799975783;115;2;weiblich;deutsch;Psychologie;2024.2.1post4
20 JU710;45;Nauru ist die kleinste souveräne Republik der Erde.;Wie lautet die kleinste souveräne Republik der Erde?;- Nauru -;True;A;0;space;1.61876810004469;0;1.54023990000132;1;0.243943899986334;116;2;weiblich;deutsch;Psychologie;2024.2.1post4
20 JU710;12;Das Jojo war ursprünglich eine philippinische Jagdwaffe.;Wo wurde das Jojo ursprünglich als Jagdwaffe genutzt?;- Philippinen -;True;A;0;space;2.16812709998339;1;1.09790880000219;2;0.216605700086802;117;2;weiblich;deutsch;Psychologie;2024.2.1post4
20 JU710;64;Das Domino-Spiel besteht aus 28 Steinen.;Aus wie vielen Steinen besteht das Domino-Spiel?;- 28 -;True;B;1;space;1.15382630005479;1;0.714947000029497;6;0.190268600010313;118;2;weiblich;deutsch;Psychologie;2024.2.1post4
20 JU710;102;In Uganda ist die Amtssprache Englisch.;Wie lautet die Amtssprache in Uganda?;- Englisch -;True;B;1;space;0.856522200047038;0;2.50955269997939;1;0.307001800043508;119;2;weiblich;deutsch;Psychologie;2024.2.1post4
21 NA115;8;Schlangen sind taub, da kein Außenohr vorhanden ist.;Welche Reptilien sind taub, da kein Außenohr vorhanden ist?;- Schlangen -;True;A;1;space;3.74669589998666;0;3.02163480001036;3;2.42496299999766;0;2;weiblich;deutsch;Psychologie;2024.2.1post4
21 NA115;10;Die Nachfolger Mohammeds bezeichnet man als Kalifen.;Wie bezeichnet man die Nachfolger Mohammeds?;- Kalifen -;True;A;1;space;2.01843719999306;1;3.72572270000819;2;1.05131280003116;1;2;weiblich;deutsch;Psychologie;2024.2.1post4
21 NA115;119;Die erste elektronische Mail wurde im Jahr 1973 versendet.;Wann wurde die erste elektronische Mail versendet?;- 1973 -;False;B;0;space;2.09190989995841;0;4.2120133000426;4;1.4109896000009;2;2;weiblich;deutsch;Psychologie;2024.2.1post4
21 NA115;94;Der Speisesaal eines Klosters wird Refektorium genannt.;Wie wird der Speisesaal eines Klosters genannt?;- Refektorium -;True;B;0;space;3.22068320005201;1;3.15936749998946;2;0.806868799962103;3;2;weiblich;deutsch;Psychologie;2024.2.1post4
21 NA115;46;Balsaholz ist die schwerste aller Holzarten.;Wie lautet die schwerste Holzart?;- Balsaholz - ;False;A;1;space;2.26358050003182;0;5.02405100001488;3;0.987200399977155;4;2;weiblich;deutsch;Psychologie;2024.2.1post4
21 NA115;96;Alexander Graham Bell erfand das Tragflügelboot.;Wer erfand das Tragflügelboot?;- Graham Bell -;True;B;0;space;2.35382009996101;0;1.37692840001546;4;1.04170529998373;5;2;weiblich;deutsch;Psychologie;2024.2.1post4
21 NA115;56;Wladimir Putin wurde in Murmansk geboren.;Wo wurde Wladimir Putin geboren?;- Murmansk -;False;A;1;space;1.44397320004646;0;3.5605298000155;2;1.22063869994599;6;2;weiblich;deutsch;Psychologie;2024.2.1post4
21 NA115;69;Der Film Pretty Woman gewann keinen Oscar. ;Wie viele Oscars gewann der Film Pretty Woman?;- Keinen -;True;B;0;space;2.26053450000472;0;2.23004739999305;4;0.912067200057209;7;2;weiblich;deutsch;Psychologie;2024.2.1post4
21 NA115;112;Eine Bienenkönigin legt durchschnittlich 500 Eier am Tag.;Wie viele Eier legt eine Bienenkönigin durchschnittlich am Tag?;- 500 -;False;B;0;space;2.54163959994912;1;2.73743039998226;3;1.08824640000239;8;2;weiblich;deutsch;Psychologie;2024.2.1post4
21 NA115;109;Tequila wird aus dem Herzen der roten Agave gewonnen.;Aus welcher Agave wird Tequila gewonnen?;- Rote Agave -;False;B;0;space;2.95875690004323;0;1.35358740005177;2;0.73444789997302;9;2;weiblich;deutsch;Psychologie;2024.2.1post4
21 NA115;71;Nicole Kidman hat panische Angst vor Schmetterlingen.;Vor welchen Tieren hat Nicole Kidman panische Angst?;- Schmetterlingen -;True;B;0;space;2.10046119999606;1;1.35668550000992;3;0.427290000021458;10;2;weiblich;deutsch;Psychologie;2024.2.1post4
21 NA115;24;Unsere Atmosphäre enthält durchschnittlich rund 0,00025 % Ozon.;Wie viel Prozent Ozon enthält unsere Atmosphäre durchschnittlich?;- 0,00025 -;False;A;1;space;3.06753580004442;0;3.39134270010982;2;0.306146900053136;11;2;weiblich;deutsch;Psychologie;2024.2.1post4
21 NA115;90;Die Wüste Gobi ist eine Felswüste.;Zu welcher Wüstenart gehört die Wüste Gobi?;- Felswüste -;False;B;0;space;2.21067479997873;0;1.86899630003609;2;0.553087400039658;12;2;weiblich;deutsch;Psychologie;2024.2.1post4
21 NA115;118;Magnesiummangel kann zu Hautproblemen führen.;Wozu kann Magnesiummangel u.a. führen?;- Hautprobleme -;False;B;0;space;1.90245160006452;1;2.96825809997972;5;1.20274290000089;13;2;weiblich;deutsch;Psychologie;2024.2.1post4
21 NA115;59;Jean-Jaques Rousseau war alleinerziehender Vater.;Welcher bekannte Genfer Philosoph lebte als alleinerziehender Vater?;- Rousseau -;False;A;1;space;2.63389810000081;1;1.9005318999989;3;1.47640399995726;14;2;weiblich;deutsch;Psychologie;2024.2.1post4
21 NA115;66;Der Bereich zwischen den Augenbrauen heißt Glabella.;Wie heißt der Bereich zwischen den Augenbrauen?;- Glabella -;True;B;0;space;1.7973291000817;0;2.85598220000975;2;0.873518099891953;15;2;weiblich;deutsch;Psychologie;2024.2.1post4
21 NA115;88;Giséle Bündchen hat einen Zwillingsbruder.;Welches bekannte brasilianische Model hat einen Zwillingsbruder?;- Giséle Bündchen -;False;B;0;space;1.92480769997928;0;2.73004799999762;1;1.40848340000957;16;2;weiblich;deutsch;Psychologie;2024.2.1post4
21 NA115;99;Das Finn-Dingi ist ein Einmannboot beim Sportsegeln.;Um welche Bootsart handelt es sich beim Finn-Dingi?;- Einmannboot -;True;B;0;space;3.15828970004804;1;1.63307260000147;2;0.255402700044215;17;2;weiblich;deutsch;Psychologie;2024.2.1post4
21 NA115;91;Island ist geologisch das jüngste Inselland der Welt.;Wie lautet das geologisch jüngste Inselland der Welt?;- Island -;True;B;0;space;3.22852150001563;1;4.37583710008767;2;0.929275600006804;18;2;weiblich;deutsch;Psychologie;2024.2.1post4
21 NA115;9;Die Augen eines Straußes sind größer als sein Gehirn.;Bei welchem Vogel sind die Augen größer als das Gehirn?;- Strauß -;True;A;1;space;2.4585822999943;1;3.08146560005844;2;1.06911599996965;19;2;weiblich;deutsch;Psychologie;2024.2.1post4
21 NA115;43;Ein menschliches Haar wächst jährlich ca. 85 mm.;Wie viele Millimeter wächst ein menschliches Haar etwa in einem Jahr?;- 85 -;True;A;1;space;3.07488540001214;0;3.75982240005396;2;1.87471020000521;20;2;weiblich;deutsch;Psychologie;2024.2.1post4
21 NA115;82;Das Hamam wurde in Griechenland erfunden.;Wo wurde das Hamam erfunden?;- Griechenland -;False;B;0;space;1.76668970007449;0;0.980391999939457;3;1.60934710002039;21;2;weiblich;deutsch;Psychologie;2024.2.1post4
21 NA115;120;Der Allradantrieb wurde 1938 in England erfunden.;In welchem Land wurde der Allradantrieb erfunden?;- England -;False;B;0;space;3.6013378999196;1;1.72611009993125;2;0.523610299918801;22;2;weiblich;deutsch;Psychologie;2024.2.1post4
21 NA115;60;Zuckerwatte wurde von einem Flugzeugpiloten erfunden.;Welchen Beruf übte der Erfinder der Zuckerwatte eigentlich aus?;- Pilot -;False;A;1;space;3.08024229994044;0;1.66986619995441;1;1.28263099992182;23;2;weiblich;deutsch;Psychologie;2024.2.1post4
21 NA115;28;Die Azoren gehören zu Spanien.;Zu welchem Land gehören die Azoren?;- Spanien -;False;A;1;space;1.61362090008333;1;1.14039290009532;5;3.86506540002301;24;2;weiblich;deutsch;Psychologie;2024.2.1post4
21 NA115;50;Ein Nilpferd wiegt bei seiner Geburt ca. 150kg.;Wie viel Kilogramm wiegt ein durchschnittliches Nilpferd bei seiner Geburt?;- 150 -;False;A;1;space;3.80535300006159;1;3.63284470001236;3;1.13764179998543;25;2;weiblich;deutsch;Psychologie;2024.2.1post4
21 NA115;4;Der Maler Marc Chagall wurde 1887 in Russland geboren.;Wann wurde der Maler Marc Chagall in Russland geboren?;- 1887 -;True;A;1;space;3.2166308000451;1;2.00257279991638;2;0.514527600025758;26;2;weiblich;deutsch;Psychologie;2024.2.1post4
21 NA115;16;Der höchste nordamerikanische Berg liegt in Wyoming.;Wo liegt der höchste nordamerikanische Berg?;- Wyoming -;False;A;1;space;1.77462549996562;1;1.10217960004229;6;1.81382319994736;27;2;weiblich;deutsch;Psychologie;2024.2.1post4
21 NA115;111;Der Erfinder des Bikinis war ursprünglich Schuhdesigner.;Was designte der Erfinder des Bikinis ursprünglich?;- Schuhe -;False;B;0;space;2.40719639998861;0;2.09486119996291;2;1.10860260005575;28;2;weiblich;deutsch;Psychologie;2024.2.1post4
21 NA115;32;Beim Rugby gibt es 30 SpielerInnen.;Wie viele SpielerInnen gibt es beim Rugby?;- 30 -;True;A;1;space;1.71975269995164;1;1.20593749999534;2;0.749290599953383;29;2;weiblich;deutsch;Psychologie;2024.2.1post4
21 NA115;17;Bolivien ist der kleinste Binnenstaat Südamerikas.;Wie heißt der kleinste Binnenstaat Südamerikas?;- Bolivien -;False;A;1;space;2.05800869991072;0;1.28411270002834;2;1.27922370005399;30;2;weiblich;deutsch;Psychologie;2024.2.1post4
21 NA115;61;Die Tochter von Sydney Poitier heißt Sydney Poitier.;Wie heißt die Tochter von Sydney Poitier mit Vornamen?;- Sydney -;True;B;0;space;4.27662890008651;0;2.88787079998292;1;0.37358870008029;31;2;weiblich;deutsch;Psychologie;2024.2.1post4
21 NA115;74;Robbie Williams heißt mit Zweitnamen Maximilian.;Wie lautet der Zweitname von Robbie Williams?;- Maximilian -;True;B;0;space;2.39148099999875;0;1.72434100008104;3;1.70680850010831;32;2;weiblich;deutsch;Psychologie;2024.2.1post4
21 NA115;53;In Angola ist Spanisch die offizielle Amtssprache.;Wie lautet die offizielle Amtssprache in Angola?;- Spanisch -;False;A;1;space;2.11268679995555;0;1.91513019998092;2;0.804489100002684;33;2;weiblich;deutsch;Psychologie;2024.2.1post4
21 NA115;68;Ein Biber kann in einem Jahr über 200 Bäume fällen.;Wie viele Bäume kann ein Biber ungefähr in einem Jahr fällen?;- 200 -;True;B;0;space;2.00636440003291;1;0.984027799917385;3;0.324985300074331;34;2;weiblich;deutsch;Psychologie;2024.2.1post4
21 NA115;33;Die Wüste Dahna liegt in Saudi-Arabien.;Wo liegt die Wüste Dahna?;- Saudi-Arabien -;True;A;1;space;1.29353530006483;1;0.973254700074904;2;0.599494599970058;35;2;weiblich;deutsch;Psychologie;2024.2.1post4
21 NA115;103;Einen kastrierten Esel nennt man auch Macker oder Knilch.;Wie wird ein kastrierter Esel ebenfalls genannt?;- Knilch -;True;B;0;space;1.7703640999971;0;2.81727669993415;2;0.620840499992482;36;2;weiblich;deutsch;Psychologie;2024.2.1post4
21 NA115;15;Der nicht sichtbare Teil des Eisbergs heißt Eisbergkiel.;Wie heißt der nicht sichtbare Teil des Eisbergs?;- Eisbergkiel -;True;A;1;space;2.9374594000401;0;3.92955580004491;2;0.773234199965373;37;2;weiblich;deutsch;Psychologie;2024.2.1post4
21 NA115;14;Manama ist die Hauptstadt Bahrains.;Wie lautet die Hauptstadt Bahrains?;- Manama -;True;A;1;space;1.97469790000468;1;2.46891579998191;1;0.739551199949346;38;2;weiblich;deutsch;Psychologie;2024.2.1post4
21 NA115;116;Der Goliathfrosch kann sogar kleine Krokodile verspeisen.;Welche Amphibie kann sogar kleine Krokodile verspeisen?;- Goliathfrosch -;False;B;0;space;2.93476410000585;1;1.77427409996744;2;0.971869800006971;39;2;weiblich;deutsch;Psychologie;2024.2.1post4
21 NA115;3;Der griechische Gott Apollon ist der Schutzherr der Küste.;Welcher griechische Gott ist der Schutzherr der Küste?;- Apollon -;True;A;1;space;2.77686300000641;0;4.53646380000282;5;2.2251839999808;40;2;weiblich;deutsch;Psychologie;2024.2.1post4
21 NA115;86;Das Capybara ist das größte aller Beuteltiere.;Welches ist das größe Beuteltier?;- Capybara -;False;B;0;space;1.5827152999118;0;2.47233010001946;5;0.998948800028302;41;2;weiblich;deutsch;Psychologie;2024.2.1post4
21 NA115;54;Kleinohrigel haben keine Stacheln.;Welche Igelart besitzt keine Stacheln?;- Kleinohrigel -;False;A;1;space;1.9395217000274;0;1.69966459996067;2;0.717383099952713;42;2;weiblich;deutsch;Psychologie;2024.2.1post4
21 NA115;62;Tom Cruise ist Legastheniker.;An welcher Entwicklungsstörung litt Tom Cruise?;- Legasthenie -;True;B;0;space;2.13384139991831;0;2.1636986999074;1;0.964118400006555;43;2;weiblich;deutsch;Psychologie;2024.2.1post4
21 NA115;73;Minerva ist die römische Göttin der Weisheit.;Wie heißt die römische Göttin der Weisheit?;- Minerva -;True;B;0;space;2.54016059997957;1;3.18326329998672;2;0.274277199991047;44;2;weiblich;deutsch;Psychologie;2024.2.1post4
21 NA115;101;Der Schwertwal gehört zur Gattung der Delfine.;Zu welcher Familie gehört der Schwertwal?;- Delfine -;True;B;0;space;2.76703539991286;0;3.04526279994752;2;0.698944799951278;45;2;weiblich;deutsch;Psychologie;2024.2.1post4
21 NA115;100;Der Ladogasee ist der größte See Europas.;Wie lautet der größte See Europas?;- Ladogasee -;True;B;0;space;3.24547660001554;0;2.97199099999852;2;1.14302489999682;46;2;weiblich;deutsch;Psychologie;2024.2.1post4
21 NA115;31;Hernando Cortéz eroberte Mexiko.;Wer eroberte Mexiko?;- Cortéz -;True;A;1;space;1.91890119994059;1;1.97216220002156;1;0.310800699982792;47;2;weiblich;deutsch;Psychologie;2024.2.1post4
21 NA115;63;Die Erde wird in 340 Längenkreise unterteilt.;In wie viele Längenkreise wird die Erde unterteilt?;- 340 -;True;B;0;space;3.26657470001373;0;2.18864830001257;2;0.272910700063221;48;2;weiblich;deutsch;Psychologie;2024.2.1post4
21 NA115;22;Der Mond passt vierzigmal in die Erdkugel.;Wie häufig passt der Mond in die Erdkugel?;- Vierzigmal -;False;A;1;space;4.07020740001462;1;1.21092990005855;1;0.258364100009203;49;2;weiblich;deutsch;Psychologie;2024.2.1post4
21 NA115;72;Seepferdchen gehören zur Gattung der Fische.;Zu welcher Tiergattung gehören Seepferdchen?;- Fische -;True;B;0;space;2.32125769997947;1;2.29295270005241;2;0.312583999941126;50;2;weiblich;deutsch;Psychologie;2024.2.1post4
21 NA115;93;Die Küstenseeschwalbe fliegt jedes Jahr ungefähr 40.000 km.;Wie viele Kilometer fliegt eine Küstenseeschwalbe ungefähr pro Jahr?;- 40.000 -;True;B;0;space;4.63159900007304;0;3.68035749997944;1;0.310286899912171;51;2;weiblich;deutsch;Psychologie;2024.2.1post4
21 NA115;42;Der durchschnittliche Wassergehalt bei Beeren beträgt 90%.;Wie hoch ist der durchschnittliche Wassergehalt (in %) bei Beeren?;- 90 -;True;A;1;space;2.58977140008938;1;3.79997020005248;2;1.05778639996424;52;2;weiblich;deutsch;Psychologie;2024.2.1post4
21 NA115;38;Spanholz besteht hauptsächlich aus Birkenholz.;Woraus besteht Spanholz hauptsächlich?;- Birkenholz -;True;A;1;space;1.69974599999841;1;1.16732139990199;2;0.800821000011638;53;2;weiblich;deutsch;Psychologie;2024.2.1post4
21 NA115;64;Das Domino-Spiel besteht aus 28 Steinen.;Aus wie vielen Steinen besteht das Domino-Spiel?;- 28 -;True;B;0;space;2.01162310002837;1;1.23921919998247;3;0.394501400063746;54;2;weiblich;deutsch;Psychologie;2024.2.1post4
21 NA115;85;Volleyball wurde in Florida erfunden.;Wo wurde Volleyball erfunden?;- Florida -;False;B;0;space;0.902303699986078;1;1.2408292000182;2;0.508016400039196;55;2;weiblich;deutsch;Psychologie;2024.2.1post4
21 NA115;75;Ein Menschenfloh kann 20cm hoch springen.;Wie hoch (in cm) kann ein Menschenfloh springen?;- 20 -;True;B;0;space;3.42900120001286;1;3.07973070000298;3;1.19578890001867;56;2;weiblich;deutsch;Psychologie;2024.2.1post4
21 NA115;95;Winston Churchill erhielt den Nobelpreis für Literatur.;Welcher ehemalige Premierminister von Großbritannien erhielt einen Nobelpreis?;- Winston Churchill -;True;B;0;space;3.18333609995898;0;2.77264229999855;1;0.818086800049059;57;2;weiblich;deutsch;Psychologie;2024.2.1post4
21 NA115;78;Der Nacktmull ist das schmerzempfindlichste Tier der Welt.;Welches ist das schmerzempfindlichste Tier der Welt?;- Nacktmull -;False;B;0;space;1.52887249994092;0;1.89126270008273;2;0.28211300005205;58;2;weiblich;deutsch;Psychologie;2024.2.1post4
21 NA115;39;Goethe schrieb genau 64 Jahre lang an seinem Faust.;Wie viele Jahre schrieb Goethe an seinem Werk Faust?;- 64 -;True;A;1;space;2.02539069997147;0;3.07868879998568;2;1.08193979994394;59;2;weiblich;deutsch;Psychologie;2024.2.1post4
21 NA115;51;Die Volksrepublik China wurde 1947 gegründet.;Wann wurde die Volksrepublik China gegründet?;- 1947 -;False;A;1;space;1.51066080003511;0;2.09329489991069;1;0.22765870008152;60;2;weiblich;deutsch;Psychologie;2024.2.1post4
21 NA115;5;Freddie Mercurys Geburtsname lautete Bulsara.;Wie lautete Freddie Mercurys Geburtsname?;- Bulsara -;True;A;1;space;1.86768539994955;0;3.36014050000813;4;1.9187839999795;61;2;weiblich;deutsch;Psychologie;2024.2.1post4
21 NA115;107;Die kanadische Sängerin Celine Dion hat acht Geschwister.;Wie viele Geschwister hat die Sängerin Celine Dion?;- Acht -;False;B;0;space;2.1238769000629;0;1.71206749998964;1;0.236269399989396;62;2;weiblich;deutsch;Psychologie;2024.2.1post4
21 NA115;7;Der Basenji ist der einzige Hund, der nicht bellt.;Welche Hunderasse ist dafür bekannt nicht zu bellen?;- Basenji - ;True;A;1;space;1.90736750001088;1;1.91792699997313;1;0.321600000024773;63;2;weiblich;deutsch;Psychologie;2024.2.1post4
21 NA115;34;Blaue Augen werden im Alter immer heller.;Wie werden blaue Augen mit zunehmendem Alter?;- Heller -;True;A;1;space;2.98092020000331;1;2.41978270001709;2;1.55512880010065;64;2;weiblich;deutsch;Psychologie;2024.2.1post4
21 NA115;110;Albany ist die Hauptstadt des US-Bundesstaates New Jersey.;Wie lautet die Hauptstadt des US-Bundesstaates New Jersey?;- Albany -;False;B;0;space;3.30656990001444;1;1.79445659997873;2;0.915047700051218;65;2;weiblich;deutsch;Psychologie;2024.2.1post4
21 NA115;87;Die Luftpumpe ist eine französische Erfindung.;Wo wurde die Luftpumpe erfunden?;- Frankreich -;False;B;0;space;1.38627849996556;0;1.27864439995028;1;0.712874700082466;66;2;weiblich;deutsch;Psychologie;2024.2.1post4
21 NA115;81;Spanien ist ein Gründungsmitglied der UNO.;Bei welcher internationalen Organisation war Spanien ein Gründungsmitglied? ;- UNO - ;False;B;0;space;2.98415369994473;1;1.05492720007896;3;0.661732500069775;67;2;weiblich;deutsch;Psychologie;2024.2.1post4
21 NA115;12;Das Jojo war ursprünglich eine philippinische Jagdwaffe.;Wo wurde das Jojo ursprünglich als Jagdwaffe genutzt?;- Philippinen -;True;A;1;space;2.29252760007512;1;0.938138599973172;2;0.456623700098135;68;2;weiblich;deutsch;Psychologie;2024.2.1post4
21 NA115;106;Auf indischen Rupienscheinen sind 12 verschiedene Schriften.;Wie viele verschiedene Schriften sind auf indischen Rupienscheinen zu finden?;- 12 -;False;B;0;space;3.50893879996147;1;0.948067300021648;2;0.596004700055346;69;2;weiblich;deutsch;Psychologie;2024.2.1post4
21 NA115;89;Der Javagraben ist die tiefste Tiefseerinne der Welt.;Wie heißt die tiefste Tiefseerinne der Welt?;- Javagraben -;False;B;0;space;1.7998915000353;1;1.44318900001235;2;0.253627100028098;70;2;weiblich;deutsch;Psychologie;2024.2.1post4
21 NA115;97;Nur Menschen und Affen besitzen einen ausgeprägten Bauchnabel.;Lediglich welche Landsäugetiere besitzen einen ausgeprägten Bauchnabel?;- Affen -;True;B;0;space;4.35145059996285;0;2.64556670002639;2;0.270754699944519;71;2;weiblich;deutsch;Psychologie;2024.2.1post4
21 NA115;102;In Uganda ist die Amtssprache Englisch.;Wie lautet die Amtssprache in Uganda?;- Englisch -;True;B;0;space;1.84456220001448;0;1.06198150001001;2;0.390048600034788;72;2;weiblich;deutsch;Psychologie;2024.2.1post4
21 NA115;45;Nauru ist die kleinste souveräne Republik der Erde.;Wie lautet die kleinste souveräne Republik der Erde?;- Nauru -;True;A;1;space;1.48353860003408;1;1.88616470003035;1;0.56384189997334;73;2;weiblich;deutsch;Psychologie;2024.2.1post4
21 NA115;13;Morpheus ist der griechische Gott der Träume.;Wie heißt der griechische Gott der Träume?;- Morpheus -;True;A;1;space;1.61413249990437;0;1.1177359999856;1;0.222824699943885;74;2;weiblich;deutsch;Psychologie;2024.2.1post4
21 NA115;35;Ein neugeborenes Panda-Baby ist kleiner als eine Maus.;Das Baby welcher Bärenart ist kleiner als eine Maus?;- Panda -;True;A;1;space;2.54939219995867;0;2.25138289993629;2;0.593010799959302;75;2;weiblich;deutsch;Psychologie;2024.2.1post4
21 NA115;1;Lybien ist das einzige Land mit einer einfarbigen Flagge.;Wie lautet das einzige Land mit einer einfarbigen Flagge?;- Lybien - ;True;A;1;space;2.02494969998952;1;3.26204990001861;1;0.276637900038622;76;2;weiblich;deutsch;Psychologie;2024.2.1post4
21 NA115;48;Die Ostgoten zählten zum Stamm der Normannen.;Zu welchem Stamm gehörten die Ostgoten?;- Normannen -;False;A;1;space;1.54314980003983;0;1.21101239998825;1;0.242163299932145;77;2;weiblich;deutsch;Psychologie;2024.2.1post4
21 NA115;108;Für Descartes wies Schielen bei Frauen auf Frigidität hin.;Worauf wies laut Decartes Schielen bei Frauen hin?;- Frigidität -;False;B;0;space;2.55646899994463;0;2.30700699996669;1;0.241322100046091;78;2;weiblich;deutsch;Psychologie;2024.2.1post4
21 NA115;26;Die Insel Ösel gehört zu Dänemark.;Zu welchem Land gehört die Insel Ösel?;- Dänemark -;False;A;1;space;1.50003750005271;1;1.08007580006961;3;0.475811999989673;79;2;weiblich;deutsch;Psychologie;2024.2.1post4
21 NA115;44;Keime sterben auf Holz schneller ab als auf Plastik.;Auf welcher Oberfläche sterben Keime schneller ab als auf Plastik?;- Holz -;True;A;1;space;3.56895270000678;0;2.71270809997804;2;1.10021679999772;80;2;weiblich;deutsch;Psychologie;2024.2.1post4
21 NA115;41;Weibliche Taranteln töten circa 99% ihrer Nachkommen.;Welches Tier tötet ca. 99% ihrer Nachkommen?;- Tarantel -;True;A;1;space;2.53619669994805;1;2.18672899994999;2;0.350668899947777;81;2;weiblich;deutsch;Psychologie;2024.2.1post4
21 NA115;19;Es gibt 56 verschiedene Arten eine Krawatte zu binden.;Wie viele berichtete Arten eine Krawatte zu binden existieren?;- 56 -;False;A;1;space;3.88639330002479;0;2.56649910006672;2;0.883745900006033;82;2;weiblich;deutsch;Psychologie;2024.2.1post4
21 NA115;2;Delfine schwimmen höchstens 54 Kilometer pro Stunde.;Welche Geschwindigkeit (km/h) können Delfine erreichen?;- 54 - ;True;A;1;space;1.69728650001343;0;5.11656080000103;2;0.269697100040503;83;2;weiblich;deutsch;Psychologie;2024.2.1post4
21 NA115;67;Frauen blinzeln fast doppelt so viel wie Männer.;Welches biologische Geschlecht blinzelt häufiger?;- Weibliches -;True;B;0;space;3.03612559998874;1;0.714679199969396;3;1.85564249998424;84;2;weiblich;deutsch;Psychologie;2024.2.1post4
21 NA115;57;Der mitteleuropäische Feldschwirl ist kein Zugvogel.;Welcher mitteleuropäische Singvogel ist kein Zugvogel? ;- Feldschwirl -;False;A;1;space;2.88009880005848;1;1.38326329994015;1;0.20078879990615;85;2;weiblich;deutsch;Psychologie;2024.2.1post4
21 NA115;27;Die Norfolkinseln im Pazifik gehören zu Neuseeland.;Zu welchem Land gehören die im Pazifik gelegenen Norfolkinseln?;- Neuseeland -;False;A;1;space;4.31083049997687;1;0.935104500036687;2;0.228271599975415;86;2;weiblich;deutsch;Psychologie;2024.2.1post4
21 NA115;65;Das meiste Gold wird derzeit in China gefördert.;Wo wird derzeit das meiste Gold gefördert?;- China -;True;B;0;space;2.78912289999425;0;2.53459449997172;1;0.310430299956352;87;2;weiblich;deutsch;Psychologie;2024.2.1post4
21 NA115;104;Bob Dylan arbeit nebenberuflich als Winzer.;Als was arbeitet Bob Dylan nebenberuflich?;- Winzer -;True;B;0;space;1.88570099999197;0;1.36606510006823;1;0.228715699980967;88;2;weiblich;deutsch;Psychologie;2024.2.1post4
21 NA115;37;In den USA wird kein Teletext ausgestrahlt.;In welchem Land wird kein Teletext ausgestrahlt?;- USA -;True;A;1;space;1.75991010002326;1;1.06053700007033;3;1.46125299995765;89;2;weiblich;deutsch;Psychologie;2024.2.1post4
21 NA115;84;Schweine können keinen Sonnenbrand bekommen.;Welche Nutztierart kann keinen Sonnenbrand bekommen?;- Schweine -;False;B;0;space;3.43213450000621;1;1.64371930004563;3;0.660542599973269;90;2;weiblich;deutsch;Psychologie;2024.2.1post4
21 NA115;25;Patagonien ist ein Landschaftsabschnitt in Asien.;Wo liegt der Landschaftsabschnitt Patagonien?;- Asien -;False;A;1;space;1.67897069989704;0;1.25599610002246;1;0.485518499976024;91;2;weiblich;deutsch;Psychologie;2024.2.1post4
21 NA115;55;Kokosnüsse haben einen höheren Fettanteil als Pistazien.;Welche Frucht hat einen höheren Fettanteil als Pistazien?;- Kokosnüsse -;False;A;1;space;1.86065829999279;1;1.49653539992869;3;1.4270251999842;92;2;weiblich;deutsch;Psychologie;2024.2.1post4
21 NA115;113;In den USA gibt es die meisten Milliardäre auf der Welt.;In welchem Land gibt es die meisten Milliardäre auf der Welt?;- USA -;False;B;0;space;1.70014920004178;0;1.23157429997809;3;1.21817370003555;93;2;weiblich;deutsch;Psychologie;2024.2.1post4
21 NA115;83;Bei den italienischen Wahlen 2008 traten 62 Parteien an.;Wie viele Parteien traten 2008 bei den italienischen Wahlen an?;- 62 -;False;B;0;space;2.77195750002284;0;1.0985838000197;1;0.25639700004831;94;2;weiblich;deutsch;Psychologie;2024.2.1post4
21 NA115;76;Die Sektsteuer wurde von Friedrich Ebert eingeführt.;Von welchem deutschen Politiker wurde die Sektsteuer eingeführt?;- Friedrich Ebert -;False;B;0;space;2.84209259995259;0;1.09266470000148;1;0.754358600010164;95;2;weiblich;deutsch;Psychologie;2024.2.1post4
21 NA115;30;French Fries wurden in England erfunden.;Wo wurden French Fries erfunden?;- England -;False;A;1;space;2.0510911999736;1;1.1799267999595;2;1.78281609993428;96;2;weiblich;deutsch;Psychologie;2024.2.1post4
21 NA115;92;Seoul bedeutet auf koreanisch Die Hauptstadt.;Wie lautet die koreanische Übersetzung von Hauptstadt?;- Seoul -;True;B;0;space;2.23967849998735;0;2.37446009996347;1;0.230355800013058;97;2;weiblich;deutsch;Psychologie;2024.2.1post4
21 NA115;105;Erdbeeren enthalten mehr Vitamin C als Orangen.;Welche Beeren enthalten mehr Vitamin C als Orangen?;- Erdbeeren -;True;B;0;space;2.2127552999882;1;1.57439109997358;2;0.260697799967602;98;2;weiblich;deutsch;Psychologie;2024.2.1post4
21 NA115;21;Brad Pitt heißt eigentlich Henry Bradley Pitt.;Wie lautet Brad Pitts erster Vorname?;- Henry -;False;A;1;space;1.53407699998934;0;2.93643130001146;1;0.222198599949479;99;2;weiblich;deutsch;Psychologie;2024.2.1post4
21 NA115;58;Der Reißverschluss wurde in Norwegen erfunden.;Wo wurde der Reißverschluss erfunden?;- Norwegen -;False;A;1;space;1.27856160001829;1;0.899120899965055;3;0.24434229999315;100;2;weiblich;deutsch;Psychologie;2024.2.1post4
21 NA115;29;Die Slowakei gehört nicht zu den NATO-Staaten.;Welches europäische Land gehört nicht zu den NATO-Staaten?;- Slowakei -;False;A;1;space;2.07115209999029;1;2.4437921999488;1;0.223050799919292;101;2;weiblich;deutsch;Psychologie;2024.2.1post4
21 NA115;40;Der Name Wowereit heißt auf Litauisch Eichhörnchen.;Was heißt auf Litauisch Eichhörnchen?;- Wowereit -;True;A;1;space;1.8025723999599;1;1.06374290003441;3;1.48798740003258;102;2;weiblich;deutsch;Psychologie;2024.2.1post4
21 NA115;36;Sambia hieß früher Nordrhodesien.;Wie heißt Nordrhodesien heute?;- Sambia -;True;A;1;space;2.2056903000921;0;1.07916799990926;1;0.273393300012685;103;2;weiblich;deutsch;Psychologie;2024.2.1post4
21 NA115;18;Wenn Nilpferde sich aufregen, färbt sich ihr Schweiß grün.;Welche Farbe nimmt Nilpferdschweiß an, wenn diese sich aufregen?;- Grün -;False;A;1;space;2.8122881000163;0;1.11252379999496;1;0.449288600008003;104;2;weiblich;deutsch;Psychologie;2024.2.1post4
21 NA115;52;Frauen bekommen häufiger Schluckauf als Männer.;Welches biologische Geschlecht ist anfälliger für Schluckauf?;- Frauen -;False;A;1;space;2.44963239994831;1;0.967198199941777;3;0.290600200067274;105;2;weiblich;deutsch;Psychologie;2024.2.1post4
21 NA115;117;Das Zwerghörnchen ist das kleinste Säugetier Europas.;Welches ist das kleinste Säugetier Europas?;- Zwerghörnchen -;False;B;0;space;1.47304160008207;0;1.77178289997391;1;0.40033869992476;106;2;weiblich;deutsch;Psychologie;2024.2.1post4
21 NA115;114;Schären sind Talgletscher in Skandinavien.;Was sind Schären in Skandinavien?;- Talgletscher -;False;B;0;space;2.3039777999511;1;1.62272969994228;2;0.26248899998609;107;2;weiblich;deutsch;Psychologie;2024.2.1post4
21 NA115;20;Die Schwarzerle zählt zu den Buchengewächsen.;Zu welcher Pflanzenfamilie gehört die Schwarzerle?;- Buchengewächsen -;False;A;1;space;1.84690030000638;0;1.08081389998551;1;0.236926199984737;108;2;weiblich;deutsch;Psychologie;2024.2.1post4
21 NA115;80;Alle Uhren im Film Pulp Fiction stehen auf 4.10 Uhr.;Welche Uhrzeit zeigen sämtliche Uhren im Film Pulp Fiction?;- 4:10 Uhr -;False;B;0;space;3.91592719999608;0;2.17646700004116;1;0.347172299982049;109;2;weiblich;deutsch;Psychologie;2024.2.1post4
21 NA115;79;Ein Schwan trägt ca. 50.000 Federn am Körper.;Wie viele Federn trägt ein Schwan ungefähr am Körper?;- 50.000 -;False;B;0;space;2.33656810002867;0;1.27606089995243;1;0.253991100005805;110;2;weiblich;deutsch;Psychologie;2024.2.1post4
21 NA115;11;Das Lieblingsgetränk von Benedikt XVI. war Fanta.;Was war das Lieblingsgetränk von Benedikt XVI.?;- Fanta -;True;A;1;space;1.70977780001704;1;1.99509750003926;3;1.3137798999669;111;2;weiblich;deutsch;Psychologie;2024.2.1post4
21 NA115;47;Tennis wurde in englischen Klöstern erfunden.;In welchem Land wurde Tennis erfunden?;- England -;False;A;1;space;1.52776909992099;1;1.18491459998768;3;0.252436299924739;112;2;weiblich;deutsch;Psychologie;2024.2.1post4
21 NA115;49;Lachse können bis zu 20 Jahre alt werden.;Wie alt (in Jahren) können Lachse werden?;- 20 -;False;A;1;space;1.60274400003254;1;1.20677300007083;2;0.253584300051443;113;2;weiblich;deutsch;Psychologie;2024.2.1post4
21 NA115;70;Die Insektenkunde wird auch Entomologie genannt.;Wie wird die Insektenkunde auch genannt?;- Entomologie -;True;B;0;space;1.27618889999576;0;2.16730969992932;2;0.744294199976139;114;2;weiblich;deutsch;Psychologie;2024.2.1post4
21 NA115;23;Austern wechseln je nach Jahreszeit ihr Geschlecht.;Welche Muscheln wechseln je nach Jahreszeit ihr Geschlecht?;- Austern -;False;A;1;space;2.54307760007214;0;1.82767209992744;1;0.264113000012003;115;2;weiblich;deutsch;Psychologie;2024.2.1post4
21 NA115;115;Die längsten bekannten Opern stammen von Gioacchino Rossini.;Von wem stammen die längsten bekannten Opern?;- G. Rossini -;False;B;0;space;1.63302639999893;1;2.04959059995599;2;0.362277899985202;116;2;weiblich;deutsch;Psychologie;2024.2.1post4
21 NA115;77;Sumatra ist die viertgrößte Insel der Welt.;Wie lautet die viertgrößte Insel der Welt?;- Sumatra -;False;B;0;space;1.5670831000898;0;0.990483700064942;1;0.228867699974217;117;2;weiblich;deutsch;Psychologie;2024.2.1post4
21 NA115;6;Die übersteigerte Angst vor dem Küssen nennt man Philemaphobie.;Wie wird eine übersteigerte Angst vor dem Küssen bezeichnet?;- Philemaphobie - ;True;A;1;space;2.25121999997646;1;1.69123450003099;2;0.268025900004432;118;2;weiblich;deutsch;Psychologie;2024.2.1post4
21 NA115;98;Sheryl Crow war Hürdenläuferin.;Welche amerikanische Sängerin war mal Hürdenläuferin?;- Sheryl Crow -;True;B;0;space;1.86208510003053;1;1.39491800009273;2;0.270844700047746;119;2;weiblich;deutsch;Psychologie;2024.2.1post4
21_FE700;69;Der Film Pretty Woman gewann keinen Oscar. ;Wie viele Oscars gewann der Film Pretty Woman?;- Keinen -;True;B;1;space;1.81193800002802;0;2.01640869991388;3;0.675317200017162;0;2;weiblich;deutsch;Psychologie;2024.2.1post4
21_FE700;65;Das meiste Gold wird derzeit in China gefördert.;Wo wird derzeit das meiste Gold gefördert?;- China -;True;B;1;space;1.86182089999784;0;2.33120929996949;5;2.5808953999076;1;2;weiblich;deutsch;Psychologie;2024.2.1post4
21_FE700;110;Albany ist die Hauptstadt des US-Bundesstaates New Jersey.;Wie lautet die Hauptstadt des US-Bundesstaates New Jersey?;- Albany -;False;B;1;space;1.82216450001579;0;3.66095369996037;1;0.960997499991208;2;2;weiblich;deutsch;Psychologie;2024.2.1post4
21_FE700;71;Nicole Kidman hat panische Angst vor Schmetterlingen.;Vor welchen Tieren hat Nicole Kidman panische Angst?;- Schmetterlingen -;True;B;1;space;2.398217100068;1;1.38035959994886;3;5.90943170001265;3;2;weiblich;deutsch;Psychologie;2024.2.1post4
21_FE700;10;Die Nachfolger Mohammeds bezeichnet man als Kalifen.;Wie bezeichnet man die Nachfolger Mohammeds?;- Kalifen -;True;A;0;space;1.46437539998442;1;5.71920220006723;3;0.988481999957003;4;2;weiblich;deutsch;Psychologie;2024.2.1post4
21_FE700;29;Die Slowakei gehört nicht zu den NATO-Staaten.;Welches europäische Land gehört nicht zu den NATO-Staaten?;- Slowakei -;False;A;0;space;1.72914850001689;1;1.44956480001565;2;0.676491299993359;5;2;weiblich;deutsch;Psychologie;2024.2.1post4
21_FE700;72;Seepferdchen gehören zur Gattung der Fische.;Zu welcher Tiergattung gehören Seepferdchen?;- Fische -;True;B;1;space;1.60785590007436;0;3.63786020001862;2;0.781633900012821;6;2;weiblich;deutsch;Psychologie;2024.2.1post4
21_FE700;120;Der Allradantrieb wurde 1938 in England erfunden.;In welchem Land wurde der Allradantrieb erfunden?;- England -;False;B;1;space;2.26147370005492;1;1.91080269997474;2;0.44038309995085;7;2;weiblich;deutsch;Psychologie;2024.2.1post4
21_FE700;56;Wladimir Putin wurde in Murmansk geboren.;Wo wurde Wladimir Putin geboren?;- Murmansk -;False;A;0;space;1.03868640004657;1;2.97492209996562;1;1.378190599964;8;2;weiblich;deutsch;Psychologie;2024.2.1post4
21_FE700;51;Die Volksrepublik China wurde 1947 gegründet.;Wann wurde die Volksrepublik China gegründet?;- 1947 -;False;A;0;space;1.0919243999524;0;4.85940149996895;1;1.35651700000744;9;2;weiblich;deutsch;Psychologie;2024.2.1post4
21_FE700;60;Zuckerwatte wurde von einem Flugzeugpiloten erfunden.;Welchen Beruf übte der Erfinder der Zuckerwatte eigentlich aus?;- Pilot -;False;A;0;space;2.12580549996346;0;3.26686990004964;1;0.338444900000468;10;2;weiblich;deutsch;Psychologie;2024.2.1post4
21_FE700;88;Giséle Bündchen hat einen Zwillingsbruder.;Welches bekannte brasilianische Model hat einen Zwillingsbruder?;- Giséle Bündchen -;False;B;1;space;1.7254690999398;1;2.82134899997618;3;1.26614890003111;11;2;weiblich;deutsch;Psychologie;2024.2.1post4
21_FE700;89;Der Javagraben ist die tiefste Tiefseerinne der Welt.;Wie heißt die tiefste Tiefseerinne der Welt?;- Javagraben -;False;B;1;space;2.03456369997002;1;1.88151539990213;2;0.973756100051105;12;2;weiblich;deutsch;Psychologie;2024.2.1post4
21_FE700;95;Winston Churchill erhielt den Nobelpreis für Literatur.;Welcher ehemalige Premierminister von Großbritannien erhielt einen Nobelpreis?;- Winston Churchill -;True;B;1;space;1.93294800003059;0;3.42861930001527;1;1.34864550002385;13;2;weiblich;deutsch;Psychologie;2024.2.1post4
21_FE700;26;Die Insel Ösel gehört zu Dänemark.;Zu welchem Land gehört die Insel Ösel?;- Dänemark -;False;A;0;space;1.46697490010411;0;3.55647960002534;1;0.784321899991482;14;2;weiblich;deutsch;Psychologie;2024.2.1post4
21_FE700;6;Die übersteigerte Angst vor dem Küssen nennt man Philemaphobie.;Wie wird eine übersteigerte Angst vor dem Küssen bezeichnet?;- Philemaphobie - ;True;A;0;space;2.00490810000338;1;4.11892500007525;1;0.480589299928397;15;2;weiblich;deutsch;Psychologie;2024.2.1post4
21_FE700;93;Die Küstenseeschwalbe fliegt jedes Jahr ungefähr 40.000 km.;Wie viele Kilometer fliegt eine Küstenseeschwalbe ungefähr pro Jahr?;- 40.000 -;True;B;1;space;1.75790520000737;1;1.60246540000662;1;1.00534870009869;16;2;weiblich;deutsch;Psychologie;2024.2.1post4
21_FE700;18;Wenn Nilpferde sich aufregen, färbt sich ihr Schweiß grün.;Welche Farbe nimmt Nilpferdschweiß an, wenn diese sich aufregen?;- Grün -;False;A;0;space;1.83594870008528;0;2.05351780005731;1;0.964093800052069;17;2;weiblich;deutsch;Psychologie;2024.2.1post4
21_FE700;82;Das Hamam wurde in Griechenland erfunden.;Wo wurde das Hamam erfunden?;- Griechenland -;False;B;1;space;1.39914839994162;1;7.74159150000196;3;1.91729689994827;18;2;weiblich;deutsch;Psychologie;2024.2.1post4
21_FE700;7;Der Basenji ist der einzige Hund, der nicht bellt.;Welche Hunderasse ist dafür bekannt nicht zu bellen?;- Basenji - ;True;A;0;space;1.58743700000923;0;1.43950239999685;1;0.480542799923569;19;2;weiblich;deutsch;Psychologie;2024.2.1post4
21_FE700;16;Der höchste nordamerikanische Berg liegt in Wyoming.;Wo liegt der höchste nordamerikanische Berg?;- Wyoming -;False;A;0;space;1.42018050001934;0;5.22990410006605;1;2.99246939993463;20;2;weiblich;deutsch;Psychologie;2024.2.1post4
21_FE700;5;Freddie Mercurys Geburtsname lautete Bulsara.;Wie lautete Freddie Mercurys Geburtsname?;- Bulsara -;True;A;0;space;1.204852300114;1;2.06084629998077;1;0.293033699970692;21;2;weiblich;deutsch;Psychologie;2024.2.1post4
21_FE700;54;Kleinohrigel haben keine Stacheln.;Welche Igelart besitzt keine Stacheln?;- Kleinohrigel -;False;A;0;space;1.64421900000889;1;4.36690729996189;1;0.534072200069204;22;2;weiblich;deutsch;Psychologie;2024.2.1post4
21_FE700;64;Das Domino-Spiel besteht aus 28 Steinen.;Aus wie vielen Steinen besteht das Domino-Spiel?;- 28 -;True;B;1;space;2.02642460004427;1;1.49445620004553;2;0.418583999969997;23;2;weiblich;deutsch;Psychologie;2024.2.1post4
21_FE700;117;Das Zwerghörnchen ist das kleinste Säugetier Europas.;Welches ist das kleinste Säugetier Europas?;- Zwerghörnchen -;False;B;1;space;0.986347199999727;0;4.12166599999182;3;1.01162720005959;24;2;weiblich;deutsch;Psychologie;2024.2.1post4
21_FE700;53;In Angola ist Spanisch die offizielle Amtssprache.;Wie lautet die offizielle Amtssprache in Angola?;- Spanisch -;False;A;0;space;2.26511089992709;1;3.17054979992099;2;0.859197500045411;25;2;weiblich;deutsch;Psychologie;2024.2.1post4
21_FE700;76;Die Sektsteuer wurde von Friedrich Ebert eingeführt.;Von welchem deutschen Politiker wurde die Sektsteuer eingeführt?;- Friedrich Ebert -;False;B;1;space;2.83151669998188;1;2.15011480008252;2;0.532685099984519;26;2;weiblich;deutsch;Psychologie;2024.2.1post4
21_FE700;78;Der Nacktmull ist das schmerzempfindlichste Tier der Welt.;Welches ist das schmerzempfindlichste Tier der Welt?;- Nacktmull -;False;B;1;space;1.45992970000952;1;3.06805300002452;2;1.42952200002037;27;2;weiblich;deutsch;Psychologie;2024.2.1post4
21_FE700;28;Die Azoren gehören zu Spanien.;Zu welchem Land gehören die Azoren?;- Spanien -;False;A;0;space;1.20658479991835;1;1.37486700003501;3;0.807463100063615;28;2;weiblich;deutsch;Psychologie;2024.2.1post4
21_FE700;61;Die Tochter von Sydney Poitier heißt Sydney Poitier.;Wie heißt die Tochter von Sydney Poitier mit Vornamen?;- Sydney -;True;B;1;space;2.02921790000983;1;1.32298150006682;4;0.403051899978891;29;2;weiblich;deutsch;Psychologie;2024.2.1post4
21_FE700;11;Das Lieblingsgetränk von Benedikt XVI. war Fanta.;Was war das Lieblingsgetränk von Benedikt XVI.?;- Fanta -;True;A;0;space;1.37497840006836;0;2.96904490003362;5;0.971009999979287;30;2;weiblich;deutsch;Psychologie;2024.2.1post4
21_FE700;112;Eine Bienenkönigin legt durchschnittlich 500 Eier am Tag.;Wie viele Eier legt eine Bienenkönigin durchschnittlich am Tag?;- 500 -;False;B;1;space;1.72736180003267;1;3.98363219993189;2;0.365083700045943;31;2;weiblich;deutsch;Psychologie;2024.2.1post4
21_FE700;111;Der Erfinder des Bikinis war ursprünglich Schuhdesigner.;Was designte der Erfinder des Bikinis ursprünglich?;- Schuhe -;False;B;1;space;1.56352790002711;1;1.22787190007512;2;0.349268599995412;32;2;weiblich;deutsch;Psychologie;2024.2.1post4
21_FE700;94;Der Speisesaal eines Klosters wird Refektorium genannt.;Wie wird der Speisesaal eines Klosters genannt?;- Refektorium -;True;B;1;space;1.17818879999686;1;1.26248319994193;3;0.445781599963084;33;2;weiblich;deutsch;Psychologie;2024.2.1post4
21_FE700;1;Lybien ist das einzige Land mit einer einfarbigen Flagge.;Wie lautet das einzige Land mit einer einfarbigen Flagge?;- Lybien - ;True;A;0;space;3.59708229999524;0;2.20948540000245;1;0.873739499947987;34;2;weiblich;deutsch;Psychologie;2024.2.1post4
21_FE700;67;Frauen blinzeln fast doppelt so viel wie Männer.;Welches biologische Geschlecht blinzelt häufiger?;- Weibliches -;True;B;1;space;1.63447569997516;1;1.02933089993894;3;0.721829000045545;35;2;weiblich;deutsch;Psychologie;2024.2.1post4
21_FE700;96;Alexander Graham Bell erfand das Tragflügelboot.;Wer erfand das Tragflügelboot?;- Graham Bell -;True;B;1;space;0.99677970004268;0;1.23759889998473;2;0.561868499964476;36;2;weiblich;deutsch;Psychologie;2024.2.1post4
21_FE700;86;Das Capybara ist das größte aller Beuteltiere.;Welches ist das größe Beuteltier?;- Capybara -;False;B;1;space;0.91835410008207;1;1.61966209998354;2;0.48167020000983;37;2;weiblich;deutsch;Psychologie;2024.2.1post4
21_FE700;9;Die Augen eines Straußes sind größer als sein Gehirn.;Bei welchem Vogel sind die Augen größer als das Gehirn?;- Strauß -;True;A;0;space;2.60986229998525;1;2.62364689994138;2;0.246015200042166;38;2;weiblich;deutsch;Psychologie;2024.2.1post4
21_FE700;37;In den USA wird kein Teletext ausgestrahlt.;In welchem Land wird kein Teletext ausgestrahlt?;- USA -;True;A;0;space;1.6106856999686;0;1.94579300004989;4;1.14431530004367;39;2;weiblich;deutsch;Psychologie;2024.2.1post4
21_FE700;27;Die Norfolkinseln im Pazifik gehören zu Neuseeland.;Zu welchem Land gehören die im Pazifik gelegenen Norfolkinseln?;- Neuseeland -;False;A;0;space;3.14182979997713;1;5.29265099996701;2;1.16110529995058;40;2;weiblich;deutsch;Psychologie;2024.2.1post4
21_FE700;84;Schweine können keinen Sonnenbrand bekommen.;Welche Nutztierart kann keinen Sonnenbrand bekommen?;- Schweine -;False;B;1;space;2.48803230002522;1;1.33135420002509;3;0.452762500033714;41;2;weiblich;deutsch;Psychologie;2024.2.1post4
21_FE700;102;In Uganda ist die Amtssprache Englisch.;Wie lautet die Amtssprache in Uganda?;- Englisch -;True;B;1;space;0.966146099963225;0;2.0184357999824;3;1.45350140007213;42;2;weiblich;deutsch;Psychologie;2024.2.1post4
21_FE700;91;Island ist geologisch das jüngste Inselland der Welt.;Wie lautet das geologisch jüngste Inselland der Welt?;- Island -;True;B;1;space;1.7752552999882;0;2.20667710003909;1;0.868878299952485;43;2;weiblich;deutsch;Psychologie;2024.2.1post4
21_FE700;3;Der griechische Gott Apollon ist der Schutzherr der Küste.;Welcher griechische Gott ist der Schutzherr der Küste?;- Apollon -;True;A;0;space;1.30102669994812;1;1.87701010005549;2;0.45732990000397;44;2;weiblich;deutsch;Psychologie;2024.2.1post4
21_FE700;118;Magnesiummangel kann zu Hautproblemen führen.;Wozu kann Magnesiummangel u.a. führen?;- Hautprobleme -;False;B;1;space;1.00354130007327;1;1.05389909993391;3;0.301005400018767;45;2;weiblich;deutsch;Psychologie;2024.2.1post4
21_FE700;14;Manama ist die Hauptstadt Bahrains.;Wie lautet die Hauptstadt Bahrains?;- Manama -;True;A;0;space;1.00771129992791;0;2.53015649993904;1;0.346594700007699;46;2;weiblich;deutsch;Psychologie;2024.2.1post4
21_FE700;15;Der nicht sichtbare Teil des Eisbergs heißt Eisbergkiel.;Wie heißt der nicht sichtbare Teil des Eisbergs?;- Eisbergkiel -;True;A;0;space;1.06564190005884;1;2.3576624999987;1;0.282620099955238;47;2;weiblich;deutsch;Psychologie;2024.2.1post4
21_FE700;59;Jean-Jaques Rousseau war alleinerziehender Vater.;Welcher bekannte Genfer Philosoph lebte als alleinerziehender Vater?;- Rousseau -;False;A;0;space;2.14335309993476;1;1.83037550002337;1;0.245130900060758;48;2;weiblich;deutsch;Psychologie;2024.2.1post4
21_FE700;116;Der Goliathfrosch kann sogar kleine Krokodile verspeisen.;Welche Amphibie kann sogar kleine Krokodile verspeisen?;- Goliathfrosch -;False;B;1;space;1.93494469998404;1;1.31056030001491;3;0.317093800054863;49;2;weiblich;deutsch;Psychologie;2024.2.1post4
21_FE700;12;Das Jojo war ursprünglich eine philippinische Jagdwaffe.;Wo wurde das Jojo ursprünglich als Jagdwaffe genutzt?;- Philippinen -;True;A;0;space;3.01252350001596;0;1.48800350003876;1;0.273475100053474;50;2;weiblich;deutsch;Psychologie;2024.2.1post4
21_FE700;35;Ein neugeborenes Panda-Baby ist kleiner als eine Maus.;Das Baby welcher Bärenart ist kleiner als eine Maus?;- Panda -;True;A;0;space;3.40885979996528;1;2.47199350001756;3;0.918994499952532;51;2;weiblich;deutsch;Psychologie;2024.2.1post4
21_FE700;73;Minerva ist die römische Göttin der Weisheit.;Wie heißt die römische Göttin der Weisheit?;- Minerva -;True;B;1;space;1.2369007000234;1;2.21904839994386;5;0.45965780003462;52;2;weiblich;deutsch;Psychologie;2024.2.1post4
21_FE700;42;Der durchschnittliche Wassergehalt bei Beeren beträgt 90%.;Wie hoch ist der durchschnittliche Wassergehalt (in %) bei Beeren?;- 90 -;True;A;0;space;2.12731709994841;1;0.925602699979208;4;0.528471100027673;53;2;weiblich;deutsch;Psychologie;2024.2.1post4
21_FE700;38;Spanholz besteht hauptsächlich aus Birkenholz.;Woraus besteht Spanholz hauptsächlich?;- Birkenholz -;True;A;0;space;2.43828399991617;1;3.14547920005862;2;0.26289839996025;54;2;weiblich;deutsch;Psychologie;2024.2.1post4
21_FE700;32;Beim Rugby gibt es 30 SpielerInnen.;Wie viele SpielerInnen gibt es beim Rugby?;- 30 -;True;A;0;space;1.60073539998848;1;1.76605839992408;2;0.209670800017193;55;2;weiblich;deutsch;Psychologie;2024.2.1post4
21_FE700;20;Die Schwarzerle zählt zu den Buchengewächsen.;Zu welcher Pflanzenfamilie gehört die Schwarzerle?;- Buchengewächsen -;False;A;0;space;1.35622870002408;0;1.74808250006754;1;0.796597699983977;56;2;weiblich;deutsch;Psychologie;2024.2.1post4
21_FE700;97;Nur Menschen und Affen besitzen einen ausgeprägten Bauchnabel.;Lediglich welche Landsäugetiere besitzen einen ausgeprägten Bauchnabel?;- Affen -;True;B;1;space;2.86983169999439;1;2.35627440002281;2;0.169275799999014;57;2;weiblich;deutsch;Psychologie;2024.2.1post4
21_FE700;68;Ein Biber kann in einem Jahr über 200 Bäume fällen.;Wie viele Bäume kann ein Biber ungefähr in einem Jahr fällen?;- 200 -;True;B;1;space;1.98635310004465;1;1.64154480001889;1;0.259307199972682;58;2;weiblich;deutsch;Psychologie;2024.2.1post4
21_FE700;101;Der Schwertwal gehört zur Gattung der Delfine.;Zu welcher Familie gehört der Schwertwal?;- Delfine -;True;B;1;space;1.23034720006399;0;2.98690420005005;2;0.432142599951476;59;2;weiblich;deutsch;Psychologie;2024.2.1post4
21_FE700;99;Das Finn-Dingi ist ein Einmannboot beim Sportsegeln.;Um welche Bootsart handelt es sich beim Finn-Dingi?;- Einmannboot -;True;B;1;space;2.29060969990678;1;1.03230239998084;3;0.244597200071439;60;2;weiblich;deutsch;Psychologie;2024.2.1post4
21_FE700;33;Die Wüste Dahna liegt in Saudi-Arabien.;Wo liegt die Wüste Dahna?;- Saudi-Arabien -;True;A;0;space;1.29852860001847;1;1.12922270002309;1;0.397026700084098;61;2;weiblich;deutsch;Psychologie;2024.2.1post4
21_FE700;114;Schären sind Talgletscher in Skandinavien.;Was sind Schären in Skandinavien?;- Talgletscher -;False;B;1;space;1.6837349999696;0;2.15705949999392;1;0.739799299975857;62;2;weiblich;deutsch;Psychologie;2024.2.1post4
21_FE700;70;Die Insektenkunde wird auch Entomologie genannt.;Wie wird die Insektenkunde auch genannt?;- Entomologie -;True;B;1;space;0.933754700003192;1;1.17438530002255;4;0.369497900013812;63;2;weiblich;deutsch;Psychologie;2024.2.1post4
21_FE700;57;Der mitteleuropäische Feldschwirl ist kein Zugvogel.;Welcher mitteleuropäische Singvogel ist kein Zugvogel? ;- Feldschwirl -;False;A;0;space;1.7796190000372;0;1.63629139994737;1;0.260413800016977;64;2;weiblich;deutsch;Psychologie;2024.2.1post4
21_FE700;34;Blaue Augen werden im Alter immer heller.;Wie werden blaue Augen mit zunehmendem Alter?;- Heller -;True;A;0;space;1.38544989994261;1;2.49435890000314;4;0.392622799961828;65;2;weiblich;deutsch;Psychologie;2024.2.1post4
21_FE700;24;Unsere Atmosphäre enthält durchschnittlich rund 0,00025 % Ozon.;Wie viel Prozent Ozon enthält unsere Atmosphäre durchschnittlich?;- 0,00025 -;False;A;0;space;2.92303509998601;0;1.3744876999408;1;0.287155600031838;66;2;weiblich;deutsch;Psychologie;2024.2.1post4
21_FE700;55;Kokosnüsse haben einen höheren Fettanteil als Pistazien.;Welche Frucht hat einen höheren Fettanteil als Pistazien?;- Kokosnüsse -;False;A;0;space;1.89819930004887;1;1.51656010001898;3;0.722069099894725;67;2;weiblich;deutsch;Psychologie;2024.2.1post4
21_FE700;52;Frauen bekommen häufiger Schluckauf als Männer.;Welches biologische Geschlecht ist anfälliger für Schluckauf?;- Frauen -;False;A;0;space;1.73263889993541;1;0.869468200020492;3;0.665090900030918;68;2;weiblich;deutsch;Psychologie;2024.2.1post4
21_FE700;58;Der Reißverschluss wurde in Norwegen erfunden.;Wo wurde der Reißverschluss erfunden?;- Norwegen -;False;A;0;space;0.938643399975263;0;1.2344261999242;2;0.549525800044648;69;2;weiblich;deutsch;Psychologie;2024.2.1post4
21_FE700;104;Bob Dylan arbeit nebenberuflich als Winzer.;Als was arbeitet Bob Dylan nebenberuflich?;- Winzer -;True;B;1;space;1.20049079996534;1;1.13686090009287;4;0.324083199957386;70;2;weiblich;deutsch;Psychologie;2024.2.1post4
21_FE700;63;Die Erde wird in 340 Längenkreise unterteilt.;In wie viele Längenkreise wird die Erde unterteilt?;- 340 -;True;B;1;space;0.9905402000295;1;1.25462939997669;3;0.30033540003933;71;2;weiblich;deutsch;Psychologie;2024.2.1post4
21_FE700;81;Spanien ist ein Gründungsmitglied der UNO.;Bei welcher internationalen Organisation war Spanien ein Gründungsmitglied? ;- UNO - ;False;B;1;space;2.14728720008861;1;3.04403760004789;2;0.619501099921763;72;2;weiblich;deutsch;Psychologie;2024.2.1post4
21_FE700;25;Patagonien ist ein Landschaftsabschnitt in Asien.;Wo liegt der Landschaftsabschnitt Patagonien?;- Asien -;False;A;0;space;1.46180739998817;1;2.85426179994829;2;0.238976699998602;73;2;weiblich;deutsch;Psychologie;2024.2.1post4
21_FE700;119;Die erste elektronische Mail wurde im Jahr 1973 versendet.;Wann wurde die erste elektronische Mail versendet?;- 1973 -;False;B;1;space;1.10307860001922;1;5.48004759999458;2;1.26506199990399;74;2;weiblich;deutsch;Psychologie;2024.2.1post4
21_FE700;43;Ein menschliches Haar wächst jährlich ca. 85 mm.;Wie viele Millimeter wächst ein menschliches Haar etwa in einem Jahr?;- 85 -;True;A;0;space;1.45564030006062;0;7.71849860006478;1;0.747370800003409;75;2;weiblich;deutsch;Psychologie;2024.2.1post4
21_FE700;62;Tom Cruise ist Legastheniker.;An welcher Entwicklungsstörung litt Tom Cruise?;- Legasthenie -;True;B;1;space;1.2036747999955;1;1.20481249992736;3;1.02695169998333;76;2;weiblich;deutsch;Psychologie;2024.2.1post4
21_FE700;49;Lachse können bis zu 20 Jahre alt werden.;Wie alt (in Jahren) können Lachse werden?;- 20 -;False;A;0;space;1.82634690008126;1;1.08126360003371;4;0.660512199974619;77;2;weiblich;deutsch;Psychologie;2024.2.1post4
21_FE700;36;Sambia hieß früher Nordrhodesien.;Wie heißt Nordrhodesien heute?;- Sambia -;True;A;0;space;1.83121639990713;0;1.48638199991547;2;1.04703360004351;78;2;weiblich;deutsch;Psychologie;2024.2.1post4
21_FE700;46;Balsaholz ist die schwerste aller Holzarten.;Wie lautet die schwerste Holzart?;- Balsaholz - ;False;A;0;space;1.06611340004019;1;1.61410100001376;1;0.283190199988894;79;2;weiblich;deutsch;Psychologie;2024.2.1post4
21_FE700;31;Hernando Cortéz eroberte Mexiko.;Wer eroberte Mexiko?;- Cortéz -;True;A;0;space;0.670754300081171;1;1.54992519994266;1;0.600771000026725;80;2;weiblich;deutsch;Psychologie;2024.2.1post4
21_FE700;2;Delfine schwimmen höchstens 54 Kilometer pro Stunde.;Welche Geschwindigkeit (km/h) können Delfine erreichen?;- 54 - ;True;A;0;space;1.05247339990456;0;3.13435880001634;2;0.994336600066163;81;2;weiblich;deutsch;Psychologie;2024.2.1post4
21_FE700;115;Die längsten bekannten Opern stammen von Gioacchino Rossini.;Von wem stammen die längsten bekannten Opern?;- G. Rossini -;False;B;1;space;1.61919769993983;1;0.994846199988388;3;0.625777099980041;82;2;weiblich;deutsch;Psychologie;2024.2.1post4
21_FE700;108;Für Descartes wies Schielen bei Frauen auf Frigidität hin.;Worauf wies laut Decartes Schielen bei Frauen hin?;- Frigidität -;False;B;1;space;1.54669989994727;1;1.25457679992542;4;0.428390800021589;83;2;weiblich;deutsch;Psychologie;2024.2.1post4
21_FE700;74;Robbie Williams heißt mit Zweitnamen Maximilian.;Wie lautet der Zweitname von Robbie Williams?;- Maximilian -;True;B;1;space;1.05098170007113;0;2.63668780005537;1;1.19681230001152;84;2;weiblich;deutsch;Psychologie;2024.2.1post4
21_FE700;44;Keime sterben auf Holz schneller ab als auf Plastik.;Auf welcher Oberfläche sterben Keime schneller ab als auf Plastik?;- Holz -;True;A;0;space;2.8203156000236;1;6.72375479992479;2;0.769702100078575;85;2;weiblich;deutsch;Psychologie;2024.2.1post4
21_FE700;90;Die Wüste Gobi ist eine Felswüste.;Zu welcher Wüstenart gehört die Wüste Gobi?;- Felswüste -;False;B;1;space;1.09976619994268;0;3.36487920000218;1;0.499341299990192;86;2;weiblich;deutsch;Psychologie;2024.2.1post4
21_FE700;100;Der Ladogasee ist der größte See Europas.;Wie lautet der größte See Europas?;- Ladogasee -;True;B;1;space;0.913255300023593;1;3.66202419996262;2;0.874074200051837;87;2;weiblich;deutsch;Psychologie;2024.2.1post4
21_FE700;45;Nauru ist die kleinste souveräne Republik der Erde.;Wie lautet die kleinste souveräne Republik der Erde?;- Nauru -;True;A;0;space;1.25351830001455;1;1.31636289996095;1;0.2047815999249;88;2;weiblich;deutsch;Psychologie;2024.2.1post4
21_FE700;41;Weibliche Taranteln töten circa 99% ihrer Nachkommen.;Welches Tier tötet ca. 99% ihrer Nachkommen?;- Tarantel -;True;A;0;space;1.14255760004744;1;3.12630920007359;4;0.409281699918211;89;2;weiblich;deutsch;Psychologie;2024.2.1post4
21_FE700;79;Ein Schwan trägt ca. 50.000 Federn am Körper.;Wie viele Federn trägt ein Schwan ungefähr am Körper?;- 50.000 -;False;B;1;space;1.15916399995331;1;1.21704400004819;3;0.296963299973868;90;2;weiblich;deutsch;Psychologie;2024.2.1post4
21_FE700;47;Tennis wurde in englischen Klöstern erfunden.;In welchem Land wurde Tennis erfunden?;- England -;False;A;0;space;0.973939100047573;1;1.28351500001736;2;0.462200099951588;91;2;weiblich;deutsch;Psychologie;2024.2.1post4
21_FE700;77;Sumatra ist die viertgrößte Insel der Welt.;Wie lautet die viertgrößte Insel der Welt?;- Sumatra -;False;B;1;space;0.949395500007086;0;1.75923709990457;1;0.426051000016741;92;2;weiblich;deutsch;Psychologie;2024.2.1post4
21_FE700;98;Sheryl Crow war Hürdenläuferin.;Welche amerikanische Sängerin war mal Hürdenläuferin?;- Sheryl Crow -;True;B;1;space;1.36668400000781;1;1.00764409999829;2;0.656429900089279;93;2;weiblich;deutsch;Psychologie;2024.2.1post4
21_FE700;21;Brad Pitt heißt eigentlich Henry Bradley Pitt.;Wie lautet Brad Pitts erster Vorname?;- Henry -;False;A;0;space;0.780059200013056;0;1.45278100005817;1;0.504498099908233;94;2;weiblich;deutsch;Psychologie;2024.2.1post4
21_FE700;30;French Fries wurden in England erfunden.;Wo wurden French Fries erfunden?;- England -;False;A;0;space;0.844194900011644;0;3.20574380003382;1;0.508215500041842;95;2;weiblich;deutsch;Psychologie;2024.2.1post4
21_FE700;22;Der Mond passt vierzigmal in die Erdkugel.;Wie häufig passt der Mond in die Erdkugel?;- Vierzigmal -;False;A;0;space;1.35044970002491;0;2.64546360005625;2;0.246068000094965;96;2;weiblich;deutsch;Psychologie;2024.2.1post4
21_FE700;107;Die kanadische Sängerin Celine Dion hat acht Geschwister.;Wie viele Geschwister hat die Sängerin Celine Dion?;- Acht -;False;B;1;space;1.02227039996069;1;0.92269210005179;2;0.598414900014177;97;2;weiblich;deutsch;Psychologie;2024.2.1post4
21_FE700;80;Alle Uhren im Film Pulp Fiction stehen auf 4.10 Uhr.;Welche Uhrzeit zeigen sämtliche Uhren im Film Pulp Fiction?;- 4:10 Uhr -;False;B;1;space;2.23600959999021;1;4.5522283000173;3;0.228890599915758;98;2;weiblich;deutsch;Psychologie;2024.2.1post4
21_FE700;109;Tequila wird aus dem Herzen der roten Agave gewonnen.;Aus welcher Agave wird Tequila gewonnen?;- Rote Agave -;False;B;1;space;1.08629909995943;1;1.63769649993628;3;0.453600900014862;99;2;weiblich;deutsch;Psychologie;2024.2.1post4
21_FE700;83;Bei den italienischen Wahlen 2008 traten 62 Parteien an.;Wie viele Parteien traten 2008 bei den italienischen Wahlen an?;- 62 -;False;B;1;space;2.55033500003628;0;2.26711909996811;2;0.707504999940284;100;2;weiblich;deutsch;Psychologie;2024.2.1post4
21_FE700;48;Die Ostgoten zählten zum Stamm der Normannen.;Zu welchem Stamm gehörten die Ostgoten?;- Normannen -;False;A;0;space;3.10835540003609;0;2.82941150001716;2;0.0845627000089735;101;2;weiblich;deutsch;Psychologie;2024.2.1post4
21_FE700;105;Erdbeeren enthalten mehr Vitamin C als Orangen.;Welche Beeren enthalten mehr Vitamin C als Orangen?;- Erdbeeren -;True;B;1;space;1.65941880003083;1;4.75258349999785;1;0.114237000001594;102;2;weiblich;deutsch;Psychologie;2024.2.1post4
21_FE700;40;Der Name Wowereit heißt auf Litauisch Eichhörnchen.;Was heißt auf Litauisch Eichhörnchen?;- Wowereit -;True;A;0;space;1.37886709999293;1;0.99900810001418;1;0.0784853000659496;103;2;weiblich;deutsch;Psychologie;2024.2.1post4
21_FE700;23;Austern wechseln je nach Jahreszeit ihr Geschlecht.;Welche Muscheln wechseln je nach Jahreszeit ihr Geschlecht?;- Austern -;False;A;0;space;1.47398080001585;1;1.10827200009953;3;0.444278599927202;104;2;weiblich;deutsch;Psychologie;2024.2.1post4
21_FE700;103;Einen kastrierten Esel nennt man auch Macker oder Knilch.;Wie wird ein kastrierter Esel ebenfalls genannt?;- Knilch -;True;B;1;space;1.13329110003542;1;0.906313800020143;4;0.283764899941161;105;2;weiblich;deutsch;Psychologie;2024.2.1post4
21_FE700;39;Goethe schrieb genau 64 Jahre lang an seinem Faust.;Wie viele Jahre schrieb Goethe an seinem Werk Faust?;- 64 -;True;A;0;space;1.65771599998698;1;1.64732180000283;2;0.273351200041361;106;2;weiblich;deutsch;Psychologie;2024.2.1post4
21_FE700;4;Der Maler Marc Chagall wurde 1887 in Russland geboren.;Wann wurde der Maler Marc Chagall in Russland geboren?;- 1887 -;True;A;0;space;1.4212753000902;1;2.47815079998691;1;0.190701900050044;107;2;weiblich;deutsch;Psychologie;2024.2.1post4
21_FE700;75;Ein Menschenfloh kann 20cm hoch springen.;Wie hoch (in cm) kann ein Menschenfloh springen?;- 20 -;True;B;1;space;1.42304669995792;1;0.519869099953212;3;0.270412800018676;108;2;weiblich;deutsch;Psychologie;2024.2.1post4
21_FE700;106;Auf indischen Rupienscheinen sind 12 verschiedene Schriften.;Wie viele verschiedene Schriften sind auf indischen Rupienscheinen zu finden?;- 12 -;False;B;1;space;1.32705189997796;1;0.955097700003535;3;0.24450120003894;109;2;weiblich;deutsch;Psychologie;2024.2.1post4
21_FE700;92;Seoul bedeutet auf koreanisch Die Hauptstadt.;Wie lautet die koreanische Übersetzung von Hauptstadt?;- Seoul -;True;B;1;space;1.64237909996882;1;1.1410884000361;4;0.251461599953473;110;2;weiblich;deutsch;Psychologie;2024.2.1post4
21_FE700;50;Ein Nilpferd wiegt bei seiner Geburt ca. 150kg.;Wie viel Kilogramm wiegt ein durchschnittliches Nilpferd bei seiner Geburt?;- 150 -;False;A;0;space;1.88330029998906;1;2.9793948000297;2;0.191822899971157;111;2;weiblich;deutsch;Psychologie;2024.2.1post4
21_FE700;17;Bolivien ist der kleinste Binnenstaat Südamerikas.;Wie heißt der kleinste Binnenstaat Südamerikas?;- Bolivien -;False;A;0;space;1.2697442000499;0;2.8725914999377;2;0.892252200050279;112;2;weiblich;deutsch;Psychologie;2024.2.1post4
21_FE700;13;Morpheus ist der griechische Gott der Träume.;Wie heißt der griechische Gott der Träume?;- Morpheus -;True;A;0;space;0.959732000017539;0;2.05171099992003;2;0.1710167999845;113;2;weiblich;deutsch;Psychologie;2024.2.1post4
21_FE700;8;Schlangen sind taub, da kein Außenohr vorhanden ist.;Welche Reptilien sind taub, da kein Außenohr vorhanden ist?;- Schlangen -;True;A;0;space;2.88182670006063;1;1.63382119999733;2;0.921239800052717;114;2;weiblich;deutsch;Psychologie;2024.2.1post4
21_FE700;87;Die Luftpumpe ist eine französische Erfindung.;Wo wurde die Luftpumpe erfunden?;- Frankreich -;False;B;1;space;0.686014799983241;1;1.2237812000094;1;0.12095540005248;115;2;weiblich;deutsch;Psychologie;2024.2.1post4
21_FE700;113;In den USA gibt es die meisten Milliardäre auf der Welt.;In welchem Land gibt es die meisten Milliardäre auf der Welt?;- USA -;False;B;1;space;0.92801779997535;1;1.30226859997492;4;0.948041699943133;116;2;weiblich;deutsch;Psychologie;2024.2.1post4
21_FE700;66;Der Bereich zwischen den Augenbrauen heißt Glabella.;Wie heißt der Bereich zwischen den Augenbrauen?;- Glabella -;True;B;1;space;0.890138200018555;1;0.866937400074676;4;0.294090099981986;117;2;weiblich;deutsch;Psychologie;2024.2.1post4
21_FE700;85;Volleyball wurde in Florida erfunden.;Wo wurde Volleyball erfunden?;- Florida -;False;B;1;space;0.510592099977657;1;1.53363680001348;2;0.253487400012091;118;2;weiblich;deutsch;Psychologie;2024.2.1post4
21_FE700;19;Es gibt 56 verschiedene Arten eine Krawatte zu binden.;Wie viele berichtete Arten eine Krawatte zu binden existieren?;- 56 -;False;A;0;space;2.119589000009;0;1.58761409996077;2;0.220714100054465;119;2;weiblich;deutsch;Psychologie;2024.2.1post4
22 CL306;16;Der höchste nordamerikanische Berg liegt in Wyoming.;Wo liegt der höchste nordamerikanische Berg?;- Wyoming -;False;A;1;space;1.45958120003343;0;1.50657500000671;2;1.37615669996012;0;2;weiblich;deutsch;Psychologie;2024.2.1post4
22 CL306;42;Der durchschnittliche Wassergehalt bei Beeren beträgt 90%.;Wie hoch ist der durchschnittliche Wassergehalt (in %) bei Beeren?;- 90 -;True;A;1;space;2.57766499998979;1;2.1072897000704;4;1.17949760006741;1;2;weiblich;deutsch;Psychologie;2024.2.1post4
22 CL306;71;Nicole Kidman hat panische Angst vor Schmetterlingen.;Vor welchen Tieren hat Nicole Kidman panische Angst?;- Schmetterlingen -;True;B;0;space;2.43895869993139;1;2.10754690004978;4;1.09922109998297;2;2;weiblich;deutsch;Psychologie;2024.2.1post4
22 CL306;17;Bolivien ist der kleinste Binnenstaat Südamerikas.;Wie heißt der kleinste Binnenstaat Südamerikas?;- Bolivien -;False;A;1;space;2.3972995999502;0;2.40418290009256;4;0.927720100036822;3;2;weiblich;deutsch;Psychologie;2024.2.1post4
22 CL306;85;Volleyball wurde in Florida erfunden.;Wo wurde Volleyball erfunden?;- Florida -;False;B;0;space;1.59365739999339;1;2.0933129999321;2;0.555135699920356;4;2;weiblich;deutsch;Psychologie;2024.2.1post4
22 CL306;8;Schlangen sind taub, da kein Außenohr vorhanden ist.;Welche Reptilien sind taub, da kein Außenohr vorhanden ist?;- Schlangen -;True;A;1;space;2.70721740007866;1;2.12792130000889;2;0.338873500004411;5;2;weiblich;deutsch;Psychologie;2024.2.1post4
22 CL306;52;Frauen bekommen häufiger Schluckauf als Männer.;Welches biologische Geschlecht ist anfälliger für Schluckauf?;- Frauen -;False;A;1;space;2.37635379994754;1;1.33882920001633;5;1.39010489999782;6;2;weiblich;deutsch;Psychologie;2024.2.1post4
22 CL306;68;Ein Biber kann in einem Jahr über 200 Bäume fällen.;Wie viele Bäume kann ein Biber ungefähr in einem Jahr fällen?;- 200 -;True;B;0;space;1.93958000000566;1;2.99544199998491;3;0.6681980000576;7;2;weiblich;deutsch;Psychologie;2024.2.1post4
22 CL306;76;Die Sektsteuer wurde von Friedrich Ebert eingeführt.;Von welchem deutschen Politiker wurde die Sektsteuer eingeführt?;- Friedrich Ebert -;False;B;0;space;2.82263259997126;0;2.03766589995939;2;3.7144985999912;8;2;weiblich;deutsch;Psychologie;2024.2.1post4
22 CL306;93;Die Küstenseeschwalbe fliegt jedes Jahr ungefähr 40.000 km.;Wie viele Kilometer fliegt eine Küstenseeschwalbe ungefähr pro Jahr?;- 40.000 -;True;B;0;space;2.93866969994269;1;1.09148499998264;3;1.28139989997726;9;2;weiblich;deutsch;Psychologie;2024.2.1post4
22 CL306;86;Das Capybara ist das größte aller Beuteltiere.;Welches ist das größe Beuteltier?;- Capybara -;False;B;0;space;1.21190019999631;0;2.34901679994073;5;2.17029380006716;10;2;weiblich;deutsch;Psychologie;2024.2.1post4
22 CL306;78;Der Nacktmull ist das schmerzempfindlichste Tier der Welt.;Welches ist das schmerzempfindlichste Tier der Welt?;- Nacktmull -;False;B;0;space;3.46520330000203;0;2.3050830999855;2;1.43829089996871;11;2;weiblich;deutsch;Psychologie;2024.2.1post4
22 CL306;53;In Angola ist Spanisch die offizielle Amtssprache.;Wie lautet die offizielle Amtssprache in Angola?;- Spanisch -;False;A;1;space;1.28588300000411;0;2.29955949995201;3;1.08879479998723;12;2;weiblich;deutsch;Psychologie;2024.2.1post4
22 CL306;34;Blaue Augen werden im Alter immer heller.;Wie werden blaue Augen mit zunehmendem Alter?;- Heller -;True;A;1;space;2.54182060004678;1;1.75271939998493;5;1.89133879996371;13;2;weiblich;deutsch;Psychologie;2024.2.1post4
22 CL306;95;Winston Churchill erhielt den Nobelpreis für Literatur.;Welcher ehemalige Premierminister von Großbritannien erhielt einen Nobelpreis?;- Winston Churchill -;True;B;0;space;2.60724040004425;1;1.55639539996628;4;0.304996300023049;14;2;weiblich;deutsch;Psychologie;2024.2.1post4
22 CL306;89;Der Javagraben ist die tiefste Tiefseerinne der Welt.;Wie heißt die tiefste Tiefseerinne der Welt?;- Javagraben -;False;B;0;space;2.89425889996346;1;1.51164989999961;3;1.29307660006452;15;2;weiblich;deutsch;Psychologie;2024.2.1post4
22 CL306;35;Ein neugeborenes Panda-Baby ist kleiner als eine Maus.;Das Baby welcher Bärenart ist kleiner als eine Maus?;- Panda -;True;A;1;space;3.38315909996163;1;2.06767389993183;3;0.829290299909189;16;2;weiblich;deutsch;Psychologie;2024.2.1post4
22 CL306;3;Der griechische Gott Apollon ist der Schutzherr der Küste.;Welcher griechische Gott ist der Schutzherr der Küste?;- Apollon -;True;A;1;space;1.91422929998953;0;2.32710130000487;6;0.640076700015925;17;2;weiblich;deutsch;Psychologie;2024.2.1post4
22 CL306;32;Beim Rugby gibt es 30 SpielerInnen.;Wie viele SpielerInnen gibt es beim Rugby?;- 30 -;True;A;1;space;2.21378210000694;0;1.66385400004219;4;2.17203000001609;18;2;weiblich;deutsch;Psychologie;2024.2.1post4
22 CL306;117;Das Zwerghörnchen ist das kleinste Säugetier Europas.;Welches ist das kleinste Säugetier Europas?;- Zwerghörnchen -;False;B;0;space;1.47581049997825;1;1.64484929991886;4;1.73401979997288;19;2;weiblich;deutsch;Psychologie;2024.2.1post4
22 CL306;98;Sheryl Crow war Hürdenläuferin.;Welche amerikanische Sängerin war mal Hürdenläuferin?;- Sheryl Crow -;True;B;0;space;2.2077830999624;1;1.6957243999932;3;1.53783830010798;20;2;weiblich;deutsch;Psychologie;2024.2.1post4
22 CL306;26;Die Insel Ösel gehört zu Dänemark.;Zu welchem Land gehört die Insel Ösel?;- Dänemark -;False;A;1;space;1.48076110007241;1;1.24433789995965;5;0.616019599954598;21;2;weiblich;deutsch;Psychologie;2024.2.1post4
22 CL306;110;Albany ist die Hauptstadt des US-Bundesstaates New Jersey.;Wie lautet die Hauptstadt des US-Bundesstaates New Jersey?;- Albany -;False;B;0;space;2.26605009997729;1;1.49989320000168;3;1.0548884999007;22;2;weiblich;deutsch;Psychologie;2024.2.1post4
22 CL306;43;Ein menschliches Haar wächst jährlich ca. 85 mm.;Wie viele Millimeter wächst ein menschliches Haar etwa in einem Jahr?;- 85 -;True;A;1;space;3.39044190000277;1;2.82633619999979;4;0.550753700081259;23;2;weiblich;deutsch;Psychologie;2024.2.1post4
22 CL306;21;Brad Pitt heißt eigentlich Henry Bradley Pitt.;Wie lautet Brad Pitts erster Vorname?;- Henry -;False;A;1;space;1.97901859995909;1;3.68201669992413;2;0.25682060001418;24;2;weiblich;deutsch;Psychologie;2024.2.1post4
22 CL306;120;Der Allradantrieb wurde 1938 in England erfunden.;In welchem Land wurde der Allradantrieb erfunden?;- England -;False;B;0;space;2.20376980002038;0;2.6613093999913;4;2.17657030001283;25;2;weiblich;deutsch;Psychologie;2024.2.1post4
22 CL306;46;Balsaholz ist die schwerste aller Holzarten.;Wie lautet die schwerste Holzart?;- Balsaholz - ;False;A;1;space;1.26127240003552;1;1.5023001000518;5;0.697616700083017;26;2;weiblich;deutsch;Psychologie;2024.2.1post4
22 CL306;69;Der Film Pretty Woman gewann keinen Oscar. ;Wie viele Oscars gewann der Film Pretty Woman?;- Keinen -;True;B;0;space;1.59133720002137;0;1.95403630007058;2;0.971276800031774;27;2;weiblich;deutsch;Psychologie;2024.2.1post4
22 CL306;74;Robbie Williams heißt mit Zweitnamen Maximilian.;Wie lautet der Zweitname von Robbie Williams?;- Maximilian -;True;B;0;space;2.58762749994639;1;1.48712850001175;3;0.848401700030081;28;2;weiblich;deutsch;Psychologie;2024.2.1post4
22 CL306;38;Spanholz besteht hauptsächlich aus Birkenholz.;Woraus besteht Spanholz hauptsächlich?;- Birkenholz -;True;A;1;space;1.49262470006943;1;1.73770529998001;2;1.37630460003857;29;2;weiblich;deutsch;Psychologie;2024.2.1post4
22 CL306;37;In den USA wird kein Teletext ausgestrahlt.;In welchem Land wird kein Teletext ausgestrahlt?;- USA -;True;A;1;space;1.83171790000051;1;2.28737569996156;5;2.01841300004162;30;2;weiblich;deutsch;Psychologie;2024.2.1post4
22 CL306;66;Der Bereich zwischen den Augenbrauen heißt Glabella.;Wie heißt der Bereich zwischen den Augenbrauen?;- Glabella -;True;B;0;space;2.39737840008456;0;2.41912460001186;2;0.914938400033861;31;2;weiblich;deutsch;Psychologie;2024.2.1post4
22 CL306;48;Die Ostgoten zählten zum Stamm der Normannen.;Zu welchem Stamm gehörten die Ostgoten?;- Normannen -;False;A;1;space;1.75935259996913;1;2.2525962999789;3;1.42674380005337;32;2;weiblich;deutsch;Psychologie;2024.2.1post4
22 CL306;29;Die Slowakei gehört nicht zu den NATO-Staaten.;Welches europäische Land gehört nicht zu den NATO-Staaten?;- Slowakei -;False;A;1;space;3.28919560008217;0;2.21495099994354;3;1.94156859989744;33;2;weiblich;deutsch;Psychologie;2024.2.1post4
22 CL306;7;Der Basenji ist der einzige Hund, der nicht bellt.;Welche Hunderasse ist dafür bekannt nicht zu bellen?;- Basenji - ;True;A;1;space;2.03359090001322;1;2.09580790007021;5;1.02196619997267;34;2;weiblich;deutsch;Psychologie;2024.2.1post4
22 CL306;25;Patagonien ist ein Landschaftsabschnitt in Asien.;Wo liegt der Landschaftsabschnitt Patagonien?;- Asien -;False;A;1;space;1.74726250011008;0;2.7420953999972;6;1.13453909999225;35;2;weiblich;deutsch;Psychologie;2024.2.1post4
22 CL306;14;Manama ist die Hauptstadt Bahrains.;Wie lautet die Hauptstadt Bahrains?;- Manama -;True;A;1;space;1.24636290001217;0;3.73339840001427;3;0.732528499909677;36;2;weiblich;deutsch;Psychologie;2024.2.1post4
22 CL306;39;Goethe schrieb genau 64 Jahre lang an seinem Faust.;Wie viele Jahre schrieb Goethe an seinem Werk Faust?;- 64 -;True;A;1;space;1.16588410001714;1;2.77612219995353;2;0.564967400045134;37;2;weiblich;deutsch;Psychologie;2024.2.1post4
22 CL306;92;Seoul bedeutet auf koreanisch Die Hauptstadt.;Wie lautet die koreanische Übersetzung von Hauptstadt?;- Seoul -;True;B;0;space;3.55761809996329;1;2.91696890001185;3;1.56026429997291;38;2;weiblich;deutsch;Psychologie;2024.2.1post4
22 CL306;101;Der Schwertwal gehört zur Gattung der Delfine.;Zu welcher Familie gehört der Schwertwal?;- Delfine -;True;B;0;space;1.33453989995178;1;1.45981769997161;2;1.24845289997756;39;2;weiblich;deutsch;Psychologie;2024.2.1post4
22 CL306;83;Bei den italienischen Wahlen 2008 traten 62 Parteien an.;Wie viele Parteien traten 2008 bei den italienischen Wahlen an?;- 62 -;False;B;0;space;3.84362519998103;1;2.87022989999969;2;0.801175499917008;40;2;weiblich;deutsch;Psychologie;2024.2.1post4
22 CL306;100;Der Ladogasee ist der größte See Europas.;Wie lautet der größte See Europas?;- Ladogasee -;True;B;0;space;2.42326800001319;0;2.54492300003767;1;1.31568620004691;41;2;weiblich;deutsch;Psychologie;2024.2.1post4
22 CL306;55;Kokosnüsse haben einen höheren Fettanteil als Pistazien.;Welche Frucht hat einen höheren Fettanteil als Pistazien?;- Kokosnüsse -;False;A;1;space;3.11891499999911;1;1.57887269998901;4;0.802689000032842;42;2;weiblich;deutsch;Psychologie;2024.2.1post4
22 CL306;36;Sambia hieß früher Nordrhodesien.;Wie heißt Nordrhodesien heute?;- Sambia -;True;A;1;space;4.54225110006519;0;4.49038129998371;2;1.81197759998031;43;2;weiblich;deutsch;Psychologie;2024.2.1post4
22 CL306;9;Die Augen eines Straußes sind größer als sein Gehirn.;Bei welchem Vogel sind die Augen größer als das Gehirn?;- Strauß -;True;A;1;space;2.02697699994314;1;1.57713310001418;6;0.336362999980338;44;2;weiblich;deutsch;Psychologie;2024.2.1post4
22 CL306;113;In den USA gibt es die meisten Milliardäre auf der Welt.;In welchem Land gibt es die meisten Milliardäre auf der Welt?;- USA -;False;B;0;space;1.76207960001193;0;3.99847500002943;3;1.08584660000633;45;2;weiblich;deutsch;Psychologie;2024.2.1post4
22 CL306;19;Es gibt 56 verschiedene Arten eine Krawatte zu binden.;Wie viele berichtete Arten eine Krawatte zu binden existieren?;- 56 -;False;A;1;space;2.1093798999209;1;1.1125307000475;5;0.352474199957214;46;2;weiblich;deutsch;Psychologie;2024.2.1post4
22 CL306;1;Lybien ist das einzige Land mit einer einfarbigen Flagge.;Wie lautet das einzige Land mit einer einfarbigen Flagge?;- Lybien - ;True;A;1;space;2.17081540008076;1;2.16621450008824;5;1.19848589994945;47;2;weiblich;deutsch;Psychologie;2024.2.1post4
